SEP=;
index;label;segment;RightUpperArm_boneIndex;RightUpperArm_quat9x_w;RightUpperArm_quat9x_x;RightUpperArm_quat9x_y;RightUpperArm_quat9x_z;RightUpperArm_gyroscope_x;RightUpperArm_gyroscope_y;RightUpperArm_gyroscope_z;RightUpperArm_accelerometer_x;RightUpperArm_accelerometer_y;RightUpperArm_accelerometer_z;RightLowerArm_boneIndex;RightLowerArm_quat9x_w;RightLowerArm_quat9x_x;RightLowerArm_quat9x_y;RightLowerArm_quat9x_z;RightLowerArm_gyroscope_x;RightLowerArm_gyroscope_y;RightLowerArm_gyroscope_z;RightLowerArm_accelerometer_x;RightLowerArm_accelerometer_y;RightLowerArm_accelerometer_z;LeftUpperArm_boneIndex;LeftUpperArm_quat9x_w;LeftUpperArm_quat9x_x;LeftUpperArm_quat9x_y;LeftUpperArm_quat9x_z;LeftUpperArm_gyroscope_x;LeftUpperArm_gyroscope_y;LeftUpperArm_gyroscope_z;LeftUpperArm_accelerometer_x;LeftUpperArm_accelerometer_y;LeftUpperArm_accelerometer_z;LeftLowerArm_boneIndex;LeftLowerArm_quat9x_w;LeftLowerArm_quat9x_x;LeftLowerArm_quat9x_y;LeftLowerArm_quat9x_z;LeftLowerArm_gyroscope_x;LeftLowerArm_gyroscope_y;LeftLowerArm_gyroscope_z;LeftLowerArm_accelerometer_x;LeftLowerArm_accelerometer_y;LeftLowerArm_accelerometer_z;Chest_boneIndex;Chest_quat9x_w;Chest_quat9x_x;Chest_quat9x_y;Chest_quat9x_z;Chest_gyroscope_x;Chest_gyroscope_y;Chest_gyroscope_z;Chest_accelerometer_x;Chest_accelerometer_y;Chest_accelerometer_z;Spine_boneIndex;Spine_quat9x_w;Spine_quat9x_x;Spine_quat9x_y;Spine_quat9x_z;Spine_gyroscope_x;Spine_gyroscope_y;Spine_gyroscope_z;Spine_accelerometer_x;Spine_accelerometer_y;Spine_accelerometer_z;RightUpperLeg_boneIndex;RightUpperLeg_quat9x_w;RightUpperLeg_quat9x_x;RightUpperLeg_quat9x_y;RightUpperLeg_quat9x_z;RightUpperLeg_gyroscope_x;RightUpperLeg_gyroscope_y;RightUpperLeg_gyroscope_z;RightUpperLeg_accelerometer_x;RightUpperLeg_accelerometer_y;RightUpperLeg_accelerometer_z;RightLowerLeg_boneIndex;RightLowerLeg_quat9x_w;RightLowerLeg_quat9x_x;RightLowerLeg_quat9x_y;RightLowerLeg_quat9x_z;RightLowerLeg_gyroscope_x;RightLowerLeg_gyroscope_y;RightLowerLeg_gyroscope_z;RightLowerLeg_accelerometer_x;RightLowerLeg_accelerometer_y;RightLowerLeg_accelerometer_z;LeftUpperLeg_boneIndex;LeftUpperLeg_quat9x_w;LeftUpperLeg_quat9x_x;LeftUpperLeg_quat9x_y;LeftUpperLeg_quat9x_z;LeftUpperLeg_gyroscope_x;LeftUpperLeg_gyroscope_y;LeftUpperLeg_gyroscope_z;LeftUpperLeg_accelerometer_x;LeftUpperLeg_accelerometer_y;LeftUpperLeg_accelerometer_z;LeftLowerLeg_boneIndex;LeftLowerLeg_quat9x_w;LeftLowerLeg_quat9x_x;LeftLowerLeg_quat9x_y;LeftLowerLeg_quat9x_z;LeftLowerLeg_gyroscope_x;LeftLowerLeg_gyroscope_y;LeftLowerLeg_gyroscope_z;LeftLowerLeg_accelerometer_x;LeftLowerLeg_accelerometer_y;LeftLowerLeg_accelerometer_z;pelvis_x;pelvis_y;pelvis_z;lowerSpine_x;lowerSpine_y;lowerSpine_z;middleSpine_x;middleSpine_y;middleSpine_z;upperSpine_x;upperSpine_y;upperSpine_z;rightClavicle_x;rightClavicle_y;rightClavicle_z;rightShoulder_x;rightShoulder_y;rightShoulder_z;rightElbow_x;rightElbow_y;rightElbow_z;rightWrist_x;rightWrist_y;rightWrist_z;leftClavicle_x;leftClavicle_y;leftClavicle_z;leftShoulder_x;leftShoulder_y;leftShoulder_z;leftElbow_x;leftElbow_y;leftElbow_z;leftWrist_x;leftWrist_y;leftWrist_z;rightHip_x;rightHip_y;rightHip_z;rightKnee_x;rightKnee_y;rightKnee_z;rightAnkle_x;rightAnkle_y;rightAnkle_z;leftHip_x;leftHip_y;leftHip_z;leftKnee_x;leftKnee_y;leftKnee_z;leftAnkle_x;leftAnkle_y;leftAnkle_z;
1095259.4876;NotLabelled;NONE;16384;0.7440136;-0.6398892;0.03878116;-0.1883656;5;7;8;-1687;3785;678;65536;0.6834798;-0.6094183;-0.2257618;-0.33241;-7;11;6;1018;3943;-121;8192;0.5844875;-0.6489419;-0.4639889;-0.1481994;0;-11;-2;1748;3685;713;32768;0.6634349;-0.719778;-0.1717452;-0.1108033;-8;-22;-1;-539;4073;159;256;-0.04986149;-0.02908587;-0.9949825;0.08171745;3;0;-2;201;-484;4083;128;0.08033241;-0.02770083;0.9927946;0.08448754;-2;2;0;73;951;-4072;4;0.3213296;-0.7545745;0.5526316;0.1481994;1;1;-2;-2851;2846;-680;16;0.05955679;-0.9560218;-0.2451524;-0.1495845;0;1;1;-1887;994;3674;2;0.1966759;-0.6191136;-0.6725301;-0.3545706;-1;7;1;2539;3224;-127;8;0.1371191;-0.9823382;0.1260388;0.01800554;1;0;2;873;1349;3811;1.00594;1.990541;2.203397;1.005419;1.943069;1.659919;1.00494;1.899326;1.182378;0.9989653;1.775863;0.4590641;0.7360678;1.696271;0.1439483;0.3994125;1.798953;0.2714584;0.1016117;0.9322959;0.1352594;0;0;0;1.255772;1.670467;0.1440572;1.548567;1.741899;0.2717006;1.907383;0.880232;0.5105658;1.981053;-0.06086504;0.5924032;0.6941447;1.990296;2.249393;0.6168003;1.04109;3.360197;0.4020717;0.7881752;4.664901;0.6941447;1.990296;2.249393;0.6168003;1.04109;3.360197;0.4020717;0.7881752;4.664901
1095280.487;NotLabelled;NONE;16384;0.7440136;-0.6398892;0.03878116;-0.1883656;6;0;3;-1683;3735;562;65536;0.6825824;-0.6094183;-0.2243767;-0.33518;-5;6;1;944;3943;-19;8192;0.5844875;-0.6502442;-0.4626039;-0.1468144;0;-7;0;1994;3665;595;32768;0.6634349;-0.7203189;-0.1703601;-0.1094183;-6;-20;1;-337;4171;259;256;-0.04986149;-0.02908587;-0.9950953;0.08033241;4;1;-1;163;-352;3951;128;0.08033241;-0.02770083;0.9927946;0.08448754;-2;2;0;97;979;-3844;4;0.3213296;-0.7545745;0.5526316;0.1481994;1;1;-1;-2981;2778;-726;16;0.06094183;-0.9559346;-0.2451524;-0.1495845;1;0;1;-1843;996;3546;2;0.1966759;-0.6191136;-0.6725301;-0.3545706;-1;1;2;2599;3076;-127;8;0.1371191;-0.9823382;0.1260388;0.01800554;0;5;0;955;1219;3769;1.00567;1.98631;2.203854;1.005166;1.940346;1.660246;1.0047;1.897927;1.182587;0.9986526;1.776472;0.4589336;0.7357195;1.697793;0.1436183;0.3990889;1.800169;0.271439;0.106367;0.9315441;0.1367812;0;0;0;1.25542;1.671914;0.1436157;1.548235;1.742948;0.2714339;1.909085;0.8796296;0.5010912;1.982949;-0.06135058;0.5840824;0.6938728;1.985938;2.24984;0.6166905;1.036733;3.360655;0.4057267;0.7846954;4.666142;0.6938728;1.985938;2.24984;0.6166905;1.036733;3.360655;0.4057267;0.7846954;4.666142
1095301.5032;NotLabelled;NONE;16384;0.7440136;-0.6398892;0.03878116;-0.1883656;7;0;0;-1425;3659;572;65536;0.6825824;-0.6094183;-0.2243767;-0.33518;-6;0;-1;932;3887;-149;8192;0.5844875;-0.6502442;-0.4626039;-0.1468144;1;-4;-2;1814;3521;339;32768;0.6634349;-0.7222245;-0.1648199;-0.1052632;-2;-32;1;-685;3959;365;256;-0.04986149;-0.02770083;-0.9951348;0.08033241;2;2;0;143;-396;3985;128;0.08033241;-0.02908587;0.9926362;0.08587258;-4;1;-1;163;919;-3914;4;0.3213296;-0.7545745;0.5526316;0.1481994;0;1;0;-2965;2728;-668;16;0.06094183;-0.9559346;-0.2451524;-0.1495845;0;0;0;-1863;894;3456;2;0.1966759;-0.6191136;-0.6732584;-0.3531856;0;-1;2;2709;2960;-113;8;0.1371191;-0.9821332;0.1274238;0.01939058;0;-6;0;955;1219;3883;1.011191;1.982544;2.20724;1.010687;1.936579;1.663633;1.010221;1.89416;1.185974;1.004206;1.774714;0.4619852;0.7412836;1.696948;0.1464351;0.404659;1.799019;0.274516;0.1118352;0.9308127;0.1373974;0;0;0;1.26098;1.670995;0.1463965;1.553796;1.741631;0.2744317;1.914381;0.8777982;0.5025679;1.988341;-0.06312406;0.5861301;0.6993939;1.982171;2.253226;0.6222116;1.032966;3.364041;0.4121449;0.7773784;4.668983;0.6993939;1.982171;2.253226;0.6222116;1.032966;3.364041;0.4121449;0.7773784;4.668983
1095322.4787;NotLabelled;NONE;16384;0.7427466;-0.6412742;0.0401662;-0.1883656;7;0;-1;-1323;3751;632;65536;0.6813433;-0.6108033;-0.2243767;-0.33518;-7;-4;-4;838;3955;-227;8192;0.5844875;-0.6512274;-0.4612188;-0.1468144;0;-11;0;1538;3619;653;32768;0.6634349;-0.7235579;-0.1606648;-0.1024931;-6;-32;5;-515;4021;155;256;-0.04986149;-0.02770083;-0.9952456;0.07894737;4;1;1;119;-558;3977;128;0.08033241;-0.02908587;0.9925154;0.08725762;-5;1;-2;209;789;-4038;4;0.3213296;-0.7545745;0.5526316;0.1481994;0;0;-2;-2875;2746;-714;16;0.06094183;-0.9561503;-0.2451524;-0.1481994;0;2;0;-1815;860;3510;2;0.1966759;-0.6191136;-0.6732584;-0.3531856;-1;1;2;2769;3118;-23;8;0.1371191;-0.9821332;0.1274238;0.01939058;0;-2;0;781;1243;3865;1.010639;1.981413;2.205225;1.010152;1.937086;1.661482;1.009703;1.896107;1.183696;1.004073;1.776757;0.4596891;0.7413897;1.698316;0.1441062;0.4044751;1.799438;0.2721772;0.1117938;0.9308126;0.1374318;0;0;0;1.261155;1.673795;0.1441038;1.553766;1.745219;0.2721725;1.914447;0.8820748;0.5027499;1.986893;-0.05879676;0.5881889;0.6988404;1.980903;2.251199;0.6213211;1.031697;3.36199;0.4108586;0.7761095;4.666869;0.6988404;1.980903;2.251199;0.6213211;1.031697;3.36199;0.4108586;0.7761095;4.666869
1095343.6623;NotLabelled;NONE;16384;0.7427466;-0.6412742;0.0401662;-0.1883656;6;-3;-2;-1417;3903;514;65536;0.6813433;-0.6108033;-0.2243767;-0.33518;-10;-3;-4;696;4079;-191;8192;0.5844875;-0.6518457;-0.4612188;-0.1440443;0;-11;4;1880;3381;637;32768;0.6634349;-0.7248546;-0.1565097;-0.09972299;-6;-31;7;-695;3915;465;256;-0.04986149;-0.02770083;-0.9953545;0.07756232;4;0;1;129;-546;3855;128;0.08171745;-0.02908587;0.9924023;0.08725762;-3;1;-2;263;829;-4122;4;0.3213296;-0.7545745;0.5526316;0.1481994;3;0;-4;-2809;2818;-650;16;0.06094183;-0.9561503;-0.2451524;-0.1481994;0;2;0;-1913;898;3600;2;0.1966759;-0.6191136;-0.6732584;-0.3531856;-1;3;4;2723;3024;-139;8;0.1371191;-0.9821332;0.1274238;0.01939058;0;0;0;921;1183;3835;1.013324;1.976599;2.196549;1.012854;1.933779;1.652685;1.012419;1.894126;1.174788;1.006939;1.776786;0.450451;0.7443178;1.699258;0.1345914;0.4073882;1.800073;0.2628643;0.1128379;0.9311695;0.1341186;0;0;0;1.26408;1.674663;0.134641;1.556672;1.745689;0.2629746;1.915435;0.8824804;0.4962878;1.986299;-0.05839503;0.5829986;0.7015237;1.975961;2.242512;0.6238203;1.026755;3.353291;0.4167168;0.7720466;4.658878;0.7015237;1.975961;2.242512;0.6238203;1.026755;3.353291;0.4167168;0.7720466;4.658878
1095363.8184;NotLabelled;NONE;16384;0.7411189;-0.6426592;0.04155125;-0.1897507;8;-1;-3;-1313;3689;342;65536;0.6795319;-0.6135734;-0.2243767;-0.333795;-7;0;-5;768;3967;-53;8192;0.5844875;-0.6518457;-0.4612188;-0.1440443;1;-5;3;2078;3509;329;32768;0.6634349;-0.7256362;-0.1537396;-0.09833795;-6;-20;7;-723;3941;465;256;-0.04986149;-0.02770083;-0.9953545;0.07756232;1;-1;0;85;-470;3805;128;0.08310249;-0.03047091;0.992123;0.08864266;-1;0;-2;205;809;-3786;4;0.3199446;-0.7551628;0.5526316;0.1481994;2;1;-3;-2943;2562;-756;16;0.06232687;-0.9562746;-0.2451524;-0.1468144;0;-3;-3;-1757;862;3448;2;0.1952908;-0.6191136;-0.6736615;-0.3531856;0;1;5;2791;2960;-33;8;0.1371191;-0.9821332;0.1274238;0.01939058;-1;1;0;977;1181;3637;1.013324;1.973568;2.199155;1.012854;1.930782;1.655288;1.012419;1.891156;1.177389;1.006946;1.775827;0.4527292;0.7443245;1.699214;0.136647;0.407405;1.799721;0.2651882;0.1128426;0.9311694;0.1341148;0;0;0;1.264083;1.674543;0.1366452;1.55668;1.745171;0.2651854;1.918929;0.8831025;0.4973279;1.988244;-0.05777442;0.5852649;0.701524;1.972928;2.245118;0.6238577;1.023722;3.355899;0.416798;0.7690135;4.661494;0.701524;1.972928;2.245118;0.6238577;1.023722;3.355899;0.416798;0.7690135;4.661494
1095384.4797;NotLabelled;NONE;16384;0.7411189;-0.6426592;0.04155125;-0.1897507;7;-4;-3;-1389;3759;458;65536;0.6782788;-0.6149584;-0.2243767;-0.333795;-7;-4;-5;800;3979;-91;8192;0.5831025;-0.6530849;-0.4612188;-0.1440443;4;2;1;1766;3503;115;32768;0.6620498;-0.7271917;-0.1523546;-0.09833795;-7;0;6;-635;3875;527;256;-0.04986149;-0.02770083;-0.9954615;0.07617728;3;-1;0;137;-574;4023;128;0.08310249;-0.03047091;0.992123;0.08864266;-4;2;-1;173;741;-3926;4;0.3199446;-0.7551628;0.5526316;0.1481994;1;3;-1;-2891;2578;-702;16;0.06094183;-0.9562195;-0.2465374;-0.1454294;-2;9;-3;-1903;644;3400;2;0.1952908;-0.6191136;-0.6736615;-0.3531856;-1;2;3;2891;2892;-105;8;0.1371191;-0.9821332;0.1274238;0.01939058;0;-1;0;971;949;3803;1.017091;1.970667;2.189021;1.01664;1.929557;1.645025;1.016221;1.891404;1.167006;1.010747;1.776075;0.4423462;0.7481246;1.699462;0.1262645;0.4112055;1.799969;0.2548065;0.1130906;0.9320507;0.1276268;0;0;0;1.267884;1.674791;0.1262617;1.560481;1.745419;0.2548015;1.922771;0.883337;0.4868275;1.990424;-0.05759597;0.5754603;0.7052894;1.969885;2.234972;0.6303761;1.023186;3.348079;0.4277918;0.765806;4.653852;0.7052894;1.969885;2.234972;0.6303761;1.023186;3.348079;0.4277918;0.765806;4.653852
1095404.6599;NotLabelled;NONE;16384;0.7401904;-0.6440443;0.04293629;-0.1883656;6;-8;-3;-1351;3929;484;65536;0.6777015;-0.6163435;-0.2243767;-0.33241;-7;-6;-5;826;4043;-67;8192;0.5803324;-0.6529733;-0.4639889;-0.1468144;8;16;1;1854;3649;379;32768;0.6592798;-0.7288412;-0.1537396;-0.1024931;-6;14;6;-457;4001;375;256;-0.05124654;-0.02770083;-0.9953911;0.07617728;6;0;0;287;-698;4015;128;0.08448754;-0.03047091;0.9918813;0.0900277;-7;1;-2;187;637;-4144;4;0.3199446;-0.7561743;0.5512465;0.1481994;0;3;-3;-2801;2702;-774;16;0.05955679;-0.9561583;-0.2479224;-0.1440443;-2;4;-2;-1729;726;3584;2;0.1952908;-0.6191136;-0.6743858;-0.3518005;-3;6;3;3129;2784;83;8;0.1371191;-0.9821332;0.1274238;0.01939058;0;-5;0;1021;959;4007;1.018011;1.968373;2.186077;1.01756;1.927262;1.642082;1.017141;1.889109;1.164063;1.011746;1.775791;0.4390852;0.7491544;1.700094;0.1227576;0.4122327;1.800292;0.2515331;0.1141492;0.9323741;0.1242809;0;0;0;1.26891;1.675348;0.1227545;1.5615;1.745576;0.2515283;1.922487;0.8838559;0.4869027;1.988077;-0.05686653;0.5792514;0.7062094;1.96759;2.232028;0.6312228;1.020892;3.345131;0.4315979;0.7674583;4.652131;0.7062094;1.96759;2.232028;0.6312228;1.020892;3.345131;0.4315979;0.7674583;4.652131
1095425.4865;NotLabelled;NONE;16384;0.7401087;-0.6440443;0.04432133;-0.1883656;6;-4;-5;-1209;3875;258;65536;0.6777015;-0.6163435;-0.2243767;-0.33241;-7;-1;-5;526;4055;-77;8192;0.5789474;-0.6538893;-0.4639889;-0.1481994;8;12;1;1546;3561;323;32768;0.6592798;-0.7281526;-0.1551246;-0.1052632;-8;18;4;-451;3875;393;256;-0.05124654;-0.02770083;-0.9954962;0.07479224;6;-1;1;189;-784;3961;128;0.08448754;-0.03047091;0.9918813;0.0900277;-6;2;-2;237;585;-4224;4;0.3199446;-0.7564445;0.5512465;0.1468144;1;3;-5;-2825;2638;-622;16;0.05955679;-0.9561583;-0.2479224;-0.1440443;-2;-1;-2;-1701;722;3600;2;0.1925208;-0.6163435;-0.6784286;-0.3504155;-3;9;10;2671;2890;43;8;0.1371191;-0.9823118;0.1260388;0.01939058;0;11;0;865;1161;3617;1.018123;1.966597;2.178366;1.017689;1.927029;1.634256;1.017285;1.890232;1.15613;1.011912;1.776866;0.4311604;0.7493356;1.701091;0.1148389;0.4123929;1.801225;0.2436089;0.1136558;0.9328914;0.1208033;0;0;0;1.269096;1.676457;0.1148358;1.561672;1.746757;0.2436041;1.92101;0.8854079;0.4828295;1.982339;-0.05502582;0.5808655;0.7063198;1.965684;2.224304;0.63614;1.01864;3.337426;0.4431722;0.7691646;4.646185;0.7063198;1.965684;2.224304;0.63614;1.01864;3.337426;0.4431722;0.7691646;4.646185
1095446.4913;NotLabelled;NONE;16384;0.7388168;-0.6454294;0.04570637;-0.1883656;6;1;-3;-1301;3825;222;65536;0.6764393;-0.6177285;-0.2243767;-0.33241;-6;0;-3;616;4039;-15;8192;0.5775623;-0.6538144;-0.4653739;-0.1495845;8;5;2;1524;3669;239;32768;0.6578947;-0.728703;-0.1565097;-0.1080332;-8;21;3;-275;4121;477;256;-0.05124654;-0.02770083;-0.9954962;0.07479224;4;-1;1;143;-682;3899;128;0.08448754;-0.03185596;0.9918377;0.0900277;-1;2;-2;329;739;-3994;4;0.3185596;-0.7570288;0.5512465;0.1468144;0;8;-4;-3095;2518;-776;16;0.05955679;-0.9561583;-0.2479224;-0.1440443;-3;-4;0;-1885;588;3490;2;0.1911357;-0.6163435;-0.6795334;-0.3490305;-1;6;8;2761;2750;-47;8;0.1371191;-0.9824886;0.1246537;0.01939058;-1;3;0;1135;983;3543;1.019837;1.963395;2.178344;1.019403;1.923827;1.634234;1.018999;1.88703;1.156108;1.013705;1.775676;0.4308257;0.7511589;1.700818;0.1142603;0.4142139;1.800645;0.2432633;0.1136481;0.9328914;0.1208111;0;0;0;1.270916;1.676107;0.1142575;1.563485;1.746006;0.2432588;1.919778;0.8841505;0.4852013;1.979036;-0.0565064;0.5823651;0.7080337;1.962483;2.224282;0.6349755;1.01742;3.338901;0.4419215;0.7679439;4.647649;0.7080337;1.962483;2.224282;0.6349755;1.01742;3.338901;0.4419215;0.7679439;4.647649
1095466.9239;NotLabelled;NONE;16384;0.7375174;-0.6468144;0.04709141;-0.1883656;5;-8;-3;-1611;3821;408;65536;0.6745807;-0.6204986;-0.2243767;-0.3310249;-6;-3;-6;750;3993;13;8192;0.5761772;-0.6547176;-0.4653739;-0.1509695;9;6;2;1956;3667;425;32768;0.6551247;-0.730181;-0.1592798;-0.1108033;-10;30;4;-643;3937;415;256;-0.05263158;-0.02908587;-0.9954875;0.0734072;5;-1;0;313;-696;4031;128;0.08587258;-0.03185596;0.991592;0.09141274;-7;0;0;233;653;-4068;4;0.3185596;-0.7583023;0.5498615;0.1454294;0;4;-3;-3205;2548;-814;16;0.05817174;-0.9564512;-0.2479224;-0.1426593;-4;0;-1;-1809;642;3472;2;0.1911357;-0.6163435;-0.6795334;-0.3490305;-3;1;5;2901;2648;19;8;0.1357341;-0.9825042;0.1260388;0.01939058;-3;-4;1;1071;919;3649;1.022782;1.963305;2.171207;1.022349;1.923875;1.627087;1.021947;1.887199;1.148952;1.016653;1.775845;0.4236693;0.7541072;1.700986;0.1071039;0.4171621;1.800813;0.2361073;0.1147046;0.933192;0.1174408;0;0;0;1.273864;1.676275;0.1071014;1.566434;1.746174;0.2361023;1.92156;0.8845131;0.480439;1.978465;-0.05601633;0.5802057;0.7109662;1.96241;2.216938;0.640644;1.019868;3.333866;0.4475775;0.7703928;4.642612;0.7109662;1.96241;2.216938;0.640644;1.019868;3.333866;0.4475775;0.7703928;4.642612
1095487.538;NotLabelled;NONE;16384;0.7374277;-0.6468144;0.04847645;-0.1883656;3;-5;-6;-1471;3845;450;65536;0.6745807;-0.6204986;-0.2243767;-0.3310249;-6;0;-8;668;4011;-83;8192;0.5747922;-0.6546282;-0.466759;-0.1523546;8;11;2;1710;3585;419;32768;0.6537396;-0.7298617;-0.1634349;-0.1149584;-11;33;3;-351;4065;395;256;-0.05263158;-0.02908587;-0.9955887;0.07202215;7;0;0;75;-728;3895;128;0.08587258;-0.033241;0.9914179;0.09279778;-6;0;0;339;669;-4134;4;0.3171745;-0.7581417;0.5512465;0.1440443;-2;0;-4;-3209;2630;-934;16;0.0567867;-0.9570978;-0.2465374;-0.1412742;-4;0;-2;-1923;622;3652;2;0.1897507;-0.6163435;-0.6806306;-0.3476454;-2;4;3;2895;2672;-47;8;0.1357341;-0.9825042;0.1260388;0.01939058;-3;-2;0;991;1147;3825;1.025793;1.957396;2.156939;1.025377;1.919512;1.612709;1.02499;1.884193;1.134472;1.019569;1.7747;0.408907;0.7568979;1.701356;0.09209093;0.4201926;1.801763;0.2212692;0.1152258;0.9339687;0.1105578;0;0;0;1.276586;1.675243;0.09214628;1.569312;1.744024;0.2213927;1.922834;0.8825754;0.4687913;1.979136;-0.05736661;0.5742732;0.7139882;1.956341;2.202864;0.6457124;1.015435;3.321297;0.4590096;0.7704035;4.631805;0.7139882;1.956341;2.202864;0.6457124;1.015435;3.321297;0.4590096;0.7704035;4.631805
1095508.4889;NotLabelled;NONE;16384;0.7370725;-0.6468144;0.04847645;-0.1897507;4;1;-7;-1143;3827;208;65536;0.6728409;-0.6218836;-0.2257618;-0.3310249;-7;6;-7;598;4013;35;8192;0.5734072;-0.65453;-0.468144;-0.1537396;8;9;0;1840;3805;419;32768;0.6523545;-0.7298092;-0.166205;-0.1191136;-9;26;2;-65;4205;221;256;-0.05263158;-0.02770083;-0.9956281;0.07202215;5;0;0;121;-752;3993;128;0.08448754;-0.033241;0.9915369;0.09279778;-6;0;0;233;737;-4092;4;0.3157895;-0.7587197;0.5512465;0.1440443;0;-4;-6;-3209;2538;-802;16;0.05540166;-0.957179;-0.2465374;-0.1412742;-2;-3;-1;-1897;596;3540;2;0.1897507;-0.6163435;-0.6806306;-0.3476454;-1;4;4;2865;2812;-85;8;0.1357341;-0.9825305;0.1260388;0.01800554;-2;2;1;1037;1095;3803;1.027132;1.9511;2.157799;1.026735;1.914866;1.613456;1.026363;1.880998;1.135114;1.021033;1.773517;0.4092476;0.7583973;1.701092;0.09219095;0.4216881;1.801192;0.2215975;0.1152173;0.9339685;0.1105667;0;0;0;1.278082;1.674899;0.09225017;1.570799;1.743278;0.22173;1.922369;0.8820858;0.4727744;1.977897;-0.05770326;0.5800124;0.7153263;1.949905;2.203709;0.645188;1.013867;3.326105;0.460718;0.7737548;4.637838;0.7153263;1.949905;2.203709;0.645188;1.013867;3.326105;0.460718;0.7737548;4.637838
1095529.4871;NotLabelled;NONE;16384;0.7358547;-0.6481994;0.04847645;-0.1897507;6;4;-4;-1263;3817;280;65536;0.6715581;-0.6232687;-0.2257618;-0.3310249;-9;5;-4;648;3995;-43;8192;0.5720221;-0.654423;-0.4695291;-0.1551246;5;-2;4;1660;3641;397;32768;0.6495845;-0.7307181;-0.1689751;-0.1246537;-9;17;3;-393;4009;323;256;-0.05124654;-0.02770083;-0.9957004;0.07202215;4;0;0;279;-648;3951;128;0.08448754;-0.033241;0.9914063;0.09418282;-5;0;0;151;671;-3932;4;0.3157895;-0.7579734;0.5526316;0.1426593;0;-1;-5;-3095;2542;-906;16;0.05540166;-0.957179;-0.2465374;-0.1412742;-2;-5;-1;-1907;572;3514;2;0.1883656;-0.6163435;-0.6817205;-0.3462604;1;0;7;2859;2680;45;8;0.134349;-0.9827209;0.1260388;0.01800554;-3;0;1;1053;983;3697;1.027968;1.95238;2.155906;1.02757;1.916108;1.611567;1.027198;1.882207;1.133227;1.022081;1.77483;0.407344;0.7596102;1.701732;0.09030566;0.4226409;1.800882;0.2197667;0.1145673;0.9345576;0.1061786;0;0;0;1.279365;1.676974;0.09030089;1.571907;1.746138;0.2197586;1.922245;0.8843738;0.4705608;1.975213;-0.05534732;0.5796784;0.7161618;1.951189;2.201818;0.6486655;1.01769;3.326488;0.4631788;0.7811347;4.638723;0.7161618;1.951189;2.201818;0.6486655;1.01769;3.326488;0.4631788;0.7811347;4.638723
1095550.4827;NotLabelled;NONE;16384;0.7357622;-0.6481994;0.04986149;-0.1897507;6;-2;-1;-1503;3821;408;65536;0.6710909;-0.6232687;-0.2271468;-0.3310249;-9;0;-3;698;4043;-91;8192;0.5706371;-0.6553018;-0.4695291;-0.1565097;6;0;4;1780;3669;303;32768;0.6481994;-0.7311485;-0.1703601;-0.1274238;-7;19;2;-243;4107;441;256;-0.05124654;-0.02908587;-0.9957601;0.07063711;6;0;-1;311;-650;3973;128;0.08448754;-0.033241;0.9914063;0.09418282;-6;-1;0;141;743;-3962;4;0.3144044;-0.758549;0.5526316;0.1426593;-1;0;-4;-3197;2482;-826;16;0.05540166;-0.957738;-0.2451524;-0.1398892;-2;-7;-1;-1989;592;3474;2;0.1869806;-0.6177285;-0.6815502;-0.3448753;1;-3;5;2985;2704;55;8;0.132964;-0.9827307;0.1274238;0.01800554;-3;-3;1;953;945;3755;1.028458;1.950045;2.150374;1.028077;1.915283;1.605936;1.027719;1.88271;1.127504;1.022584;1.775381;0.4016137;0.7600999;1.702357;0.0845688;0.4231504;1.801567;0.2140353;0.115335;0.9348081;0.1030954;0;0;0;1.27985;1.677493;0.08456588;1.572405;1.746588;0.2140298;1.920917;0.8850464;0.4681153;1.968726;-0.05436122;0.582197;0.7166507;1.948727;2.196272;0.6415214;1.017573;3.322401;0.4523997;0.7810177;4.634118;0.7166507;1.948727;2.196272;0.6415214;1.017573;3.322401;0.4523997;0.7810177;4.634118
1095570.4908;NotLabelled;NONE;16384;0.7353084;-0.6481994;0.05124654;-0.1911357;0;0;-8;-1329;3933;398;65536;0.6685075;-0.6260388;-0.2271468;-0.3310249;-7;1;-9;558;4067;-1;8192;0.5692521;-0.6565053;-0.4695291;-0.1565097;8;7;0;1674;3791;315;32768;0.6481994;-0.7300089;-0.1731302;-0.1301939;-7;19;1;-115;4041;239;256;-0.05124654;-0.02908587;-0.9958574;0.06925207;8;0;-1;205;-664;4039;128;0.08587258;-0.03185596;0.9912002;0.09556787;-7;-1;0;263;733;-4178;4;0.3144044;-0.7588081;0.5526316;0.1412742;0;-2;-3;-3201;2540;-932;16;0.05401662;-0.9581705;-0.2437673;-0.1398892;-2;-6;-1;-1969;650;3528;2;0.1869806;-0.6177285;-0.6815502;-0.3448753;0;0;4;2951;2820;-9;8;0.132964;-0.9827307;0.1274238;0.01800554;-2;-2;1;961;1095;3847;1.028767;1.945617;2.14912;1.028385;1.910856;1.604682;1.028028;1.878283;1.12625;1.022678;1.772867;0.4000812;0.7600243;1.701436;0.08281383;0.4233473;1.801286;0.2124966;0.1136707;0.9351255;0.1020638;0;0;0;1.279699;1.67506;0.08281064;1.572438;1.742967;0.2124909;1.917976;0.8809634;0.4690603;1.963356;-0.05827653;0.5854923;0.7169596;1.944299;2.195019;0.6447271;1.015688;3.323434;0.4590364;0.78049;4.635885;0.7169596;1.944299;2.195019;0.6447271;1.015688;3.323434;0.4590364;0.78049;4.635885
1095590.6167;NotLabelled;NONE;16384;0.734947;-0.6481994;0.05124654;-0.1925208;4;5;-6;-1135;3813;-142;65536;0.6672077;-0.6274238;-0.2271468;-0.3310249;-4;-4;-5;598;3983;123;8192;0.5692521;-0.6551803;-0.4709141;-0.1578947;6;10;0;1788;3779;343;32768;0.6468144;-0.7309884;-0.1731302;-0.1315789;-7;13;1;-281;4105;267;256;-0.05124654;-0.02770083;-0.9959922;0.06786703;5;1;0;237;-646;4149;128;0.08587258;-0.03185596;0.9910657;0.09695291;-6;0;0;147;791;-4200;4;0.3130194;-0.7583706;0.5540166;0.1412742;0;-3;-4;-3083;2510;-786;16;0.05401662;-0.9587229;-0.2423823;-0.1385041;-1;-8;-2;-1843;678;3508;2;0.1855956;-0.6177285;-0.6819287;-0.3448753;1;0;5;2843;2926;-61;8;0.1315789;-0.9829171;0.1274238;0.01800554;-2;0;1;925;1081;3929;1.034199;1.939645;2.142173;1.033833;1.90629;1.597647;1.033489;1.874952;1.119132;1.028226;1.77155;0.3926729;0.7656074;1.701038;0.07517175;0.4289267;1.800578;0.2050833;0.1158009;0.9355828;0.0952475;0;0;0;1.285279;1.674586;0.07516909;1.578008;1.742089;0.2050785;1.922233;0.8805281;0.4648803;1.967307;-0.05889082;0.5799876;0.7223901;1.938208;2.188058;0.647249;1.011598;3.317928;0.4602371;0.7804312;4.630908;0.7223901;1.938208;2.188058;0.647249;1.011598;3.317928;0.4602371;0.7804312;4.630908
1095610.6648;NotLabelled;NONE;16384;0.7337231;-0.6495845;0.05124654;-0.1925208;6;0;0;-1609;3773;6;65536;0.6678931;-0.6274238;-0.2271468;-0.3296399;0;-15;-2;842;3963;83;8192;0.567867;-0.6560464;-0.4709141;-0.1592798;4;2;2;1590;3683;429;32768;0.6454294;-0.7316324;-0.1745152;-0.132964;-6;6;1;-291;4005;409;256;-0.05124654;-0.02770083;-0.9959922;0.06786703;4;1;0;291;-584;4029;128;0.08587258;-0.03185596;0.9909292;0.09833795;-3;0;1;251;873;-3988;4;0.3116343;-0.7579279;0.5554016;0.1412742;0;-1;-3;-3173;2498;-806;16;0.05401662;-0.959271;-0.2409972;-0.1371191;-3;-8;-2;-1927;668;3520;2;0.1855956;-0.6177285;-0.6826274;-0.3434903;1;-3;5;2905;2868;103;8;0.1315789;-0.9830956;0.1260388;0.01800554;-3;2;0;885;1045;3745;1.036479;1.935351;2.139174;1.03613;1.903506;1.594556;1.0358;1.873496;1.115957;1.03091;1.77221;0.3891971;0.7685212;1.701941;0.07145157;0.4315633;1.800221;0.2016041;0.1168463;0.9357915;0.09185585;0;0;0;1.28826;1.676847;0.07144865;1.580794;1.744734;0.2015991;1.925015;0.8829408;0.4606338;1.967745;-0.05621612;0.5787271;0.724669;1.933787;2.185045;0.650278;1.01008;3.31734;0.4661693;0.7802584;4.630966;0.724669;1.933787;2.185045;0.650278;1.01008;3.31734;0.4661693;0.7802584;4.630966
1095631.7986;NotLabelled;NONE;16384;0.7323963;-0.6509695;0.05263158;-0.1925208;4;-15;2;-2015;3757;390;65536;0.6684214;-0.6288089;-0.2257618;-0.3268698;-2;-15;-5;742;3971;1;8192;0.566482;-0.6572427;-0.4709141;-0.1592798;5;-4;3;1936;3721;263;32768;0.6440443;-0.7325993;-0.1745152;-0.134349;-5;3;4;-449;4011;407;256;-0.04986149;-0.02770083;-0.9961559;0.06648199;6;0;-2;241;-558;3917;128;0.08587258;-0.03185596;0.9909292;0.09833795;-3;0;2;327;785;-3976;4;0.3116343;-0.7579279;0.5554016;0.1412742;0;-2;-1;-3163;2612;-902;16;0.05401662;-0.959271;-0.2409972;-0.1371191;-3;-1;-1;-1933;628;3576;2;0.1855956;-0.6191136;-0.6813715;-0.3434903;0;-5;4;3075;2812;49;8;0.1301939;-0.98328;0.1260388;0.01800554;-3;-4;1;961;975;3849;1.034405;1.933433;2.133956;1.034072;1.9031;1.589253;1.033758;1.874418;1.110572;1.028943;1.773132;0.3838118;0.7665866;1.702864;0.0660387;0.4296151;1.801143;0.1961568;0.1149061;0.9360106;0.09207278;0;0;0;1.286325;1.67777;0.06608978;1.578846;1.745656;0.1962709;1.919965;0.8841481;0.4603095;1.962132;-0.05468106;0.5811784;0.722594;1.931742;2.179814;0.6491491;1.010941;3.314534;0.4681672;0.782454;4.628828;0.722594;1.931742;2.179814;0.6491491;1.010941;3.314534;0.4681672;0.782454;4.628828
1095652.4779;NotLabelled;NONE;16384;0.7341426;-0.6495845;0.05540166;-0.1897507;1;-17;-2;-1645;3857;664;65536;0.6682592;-0.6301939;-0.2243767;-0.3254848;-6;-7;-9;666;3969;-91;8192;0.5650969;-0.658434;-0.4709141;-0.1592798;4;1;3;1918;3595;259;32768;0.6440443;-0.732344;-0.1745152;-0.1357341;-5;0;4;-267;4013;439;256;-0.04986149;-0.02770083;-0.9962474;0.06509695;6;1;-3;173;-628;3955;128;0.08448754;-0.03185596;0.9909099;0.09972299;-4;-3;2;247;739;-4204;4;0.3116343;-0.7579279;0.5554016;0.1412742;0;-2;-1;-3189;2546;-764;16;0.05263158;-0.959348;-0.2409972;-0.1371191;-3;2;-1;-1863;632;3656;2;0.1842105;-0.6204986;-0.6811842;-0.3421052;0;-3;3;3101;2848;-61;8;0.1288089;-0.9832576;0.1274238;0.01939058;-2;-5;0;781;1037;4005;1.034603;1.93046;2.13191;1.03427;1.900127;1.587207;1.033956;1.871445;1.108526;1.029132;1.772224;0.3814812;0.766763;1.702946;0.06350155;0.4298202;1.800968;0.1938865;0.1135327;0.9363426;0.09038331;0;0;0;1.286493;1.677677;0.0634988;1.579032;1.745096;0.1938811;1.918148;0.8833171;0.4596108;1.95765;-0.05522943;0.5835339;0.7227918;1.928768;2.177768;0.646246;1.007968;3.312283;0.4616728;0.7794806;4.626077;0.7227918;1.928768;2.177768;0.646246;1.007968;3.312283;0.4616728;0.7794806;4.626077
1095672.6408;NotLabelled;NONE;16384;0.7337832;-0.6495845;0.05540166;-0.1911357;0;9;-3;-1177;3871;318;65536;0.6646959;-0.632964;-0.2271468;-0.3254848;-15;10;-5;328;4057;-11;8192;0.5650969;-0.6574412;-0.4722992;-0.1592798;2;3;5;1718;3651;417;32768;0.6426592;-0.7338878;-0.1731302;-0.1357341;-5;-5;4;-295;4007;439;256;-0.04986149;-0.02631579;-0.996285;0.06509695;2;1;-2;127;-610;3927;128;0.08448754;-0.03185596;0.9909099;0.09972299;-3;-1;1;265;787;-4150;4;0.3116343;-0.7569109;0.5567867;0.1412742;1;-4;-3;-3149;2634;-634;16;0.05263158;-0.959545;-0.2409972;-0.1357341;-1;0;-2;-1807;628;3724;2;0.1842105;-0.6204986;-0.6818781;-0.3407202;-1;-1;5;2921;2888;31;8;0.1288089;-0.9832576;0.1274238;0.01939058;-2;-1;-1;735;849;3901;1.035512;1.924984;2.130713;1.035195;1.896129;1.58593;1.034895;1.868745;1.107173;1.03023;1.77154;0.3798547;0.7679268;1.703181;0.06162187;0.4309669;1.80089;0.1921977;0.1143197;0.9364569;0.08818465;0;0;0;1.287653;1.677838;0.06167233;1.580171;1.744853;0.1923111;1.917898;0.8842766;0.4636496;1.955459;-0.05441689;0.5870657;0.7236992;1.923169;2.176558;0.6469604;1.002368;3.31106;0.4612826;0.7774479;4.625314;0.7236992;1.923169;2.176558;0.6469604;1.002368;3.31106;0.4612826;0.7774479;4.625314
1095694.4824;NotLabelled;NONE;16384;0.7337832;-0.6495845;0.05540166;-0.1911357;1;7;-2;-1333;3889;394;65536;0.6628984;-0.634349;-0.2285319;-0.3254848;-17;5;-4;516;4063;-53;8192;0.5637119;-0.6586292;-0.4722992;-0.1592798;3;-6;5;1574;3759;335;32768;0.6426592;-0.7342132;-0.1717452;-0.1357341;-5;-7;2;-275;4097;437;256;-0.04847645;-0.02631579;-0.9963533;0.06509695;1;-1;-2;219;-466;3951;128;0.08448754;-0.03047091;0.9908131;0.101108;-2;-5;0;163;775;-3850;4;0.3102493;-0.7574797;0.5567867;0.1412742;1;-4;-3;-3113;2578;-614;16;0.05263158;-0.959545;-0.2409972;-0.1357341;-1;-4;-2;-1693;596;3666;2;0.1842105;-0.6218836;-0.6806151;-0.3407202;-2;-4;5;3061;2724;97;8;0.1274238;-0.983438;0.1274238;0.01939058;-4;5;-1;845;927;3757;1.035819;1.926594;2.123971;1.035503;1.897738;1.579188;1.035202;1.870353;1.100431;1.030736;1.773246;0.3730983;0.7685928;1.704212;0.0548804;0.4313768;1.800971;0.1855028;0.1131223;0.9373983;0.0792688;0;0;0;1.288387;1.680304;0.05487767;1.580731;1.748107;0.1854983;1.920217;0.8874456;0.4543589;1.955586;-0.05084991;0.5813987;0.7240065;1.924778;2.169815;0.6454919;1.004331;3.304483;0.4632889;0.7802824;4.619372;0.7240065;1.924778;2.169815;0.6454919;1.004331;3.304483;0.4632889;0.7802824;4.619372
1095715.4985;NotLabelled;NONE;16384;0.733421;-0.6495845;0.05540166;-0.1925208;0;2;-3;-1645;3791;562;65536;0.6608869;-0.6357341;-0.2285319;-0.3268698;-17;5;-5;706;3971;-9;8192;0.5637119;-0.6599531;-0.4709141;-0.1578947;3;-8;3;1604;3781;239;32768;0.6426592;-0.7342785;-0.1703601;-0.1371191;-6;-3;2;-345;4079;433;256;-0.04847645;-0.02631579;-0.9963533;0.06509695;5;0;-1;237;-596;3945;128;0.08448754;-0.03047091;0.9908131;0.101108;-5;-3;0;103;735;-3964;4;0.3088643;-0.7572834;0.5581717;0.1398892;-1;-2;-3;-3397;2438;-784;16;0.05124654;-0.9606988;-0.2382271;-0.132964;-2;-7;-3;-1785;436;3628;2;0.1828255;-0.6218836;-0.6816797;-0.3393352;-4;-3;5;3077;2616;-43;8;0.1274238;-0.9834098;0.1274238;0.02077562;-5;-2;-1;1153;993;3663;1.034753;1.924284;2.120732;1.034451;1.896801;1.575878;1.034163;1.870623;1.097054;1.029681;1.773563;0.3697149;0.7675259;1.704596;0.05149159;0.4303276;1.801409;0.1821198;0.1123384;0.9378366;0.07509426;0;0;0;1.287316;1.680592;0.05148852;1.579672;1.748333;0.1821148;1.91717;0.8881502;0.454977;1.950425;-0.05018508;0.5822923;0.7229387;1.922353;2.166563;0.6440144;1.004458;3.303268;0.4581707;0.7804093;4.617646;0.7229387;1.922353;2.166563;0.6440144;1.004458;3.303268;0.4581707;0.7804093;4.617646
1095736.4988;NotLabelled;NONE;16384;0.7342811;-0.6481994;0.05540166;-0.1939058;-4;6;-7;-1597;3829;572;65536;0.6583815;-0.6371191;-0.2299169;-0.3282548;-18;15;-10;662;4025;-73;8192;0.5623268;-0.6601449;-0.4722992;-0.1578947;0;4;4;1802;3739;311;32768;0.6412742;-0.7354884;-0.1703601;-0.1371191;-7;0;3;-423;3979;479;256;-0.04847645;-0.02631579;-0.9964428;0.06371191;7;1;0;231;-584;3931;128;0.08448754;-0.03047091;0.9906707;0.1024931;-7;0;0;71;787;-4248;4;0.3088643;-0.7562606;0.5595568;0.1398892;0;-7;-4;-3147;2562;-866;16;0.05124654;-0.9610412;-0.2368421;-0.132964;-1;-4;-2;-1883;630;3676;2;0.1828255;-0.6218836;-0.6823674;-0.3379501;-4;0;4;2953;2744;-13;8;0.1260388;-0.9834078;0.1288089;0.02077562;-6;-8;-1;1179;1041;3643;1.039409;1.923621;2.116941;1.039107;1.896138;1.572087;1.03882;1.86996;1.093262;1.034337;1.7729;0.3659237;0.7721819;1.703934;0.04770039;0.4349837;1.800746;0.1783286;0.1153814;0.9377533;0.07143713;0;0;0;1.291972;1.67993;0.04769728;1.584328;1.747671;0.1783236;1.92175;0.8877417;0.4520807;1.951321;-0.05076373;0.5790464;0.7275947;1.92169;2.162771;0.6469009;1.008733;3.303322;0.466732;0.7908918;4.619533;0.7275947;1.92169;2.162771;0.6469009;1.008733;3.303322;0.466732;0.7908918;4.619533
1095756.6118;NotLabelled;NONE;16384;0.7339139;-0.6481994;0.05540166;-0.1952908;-5;12;-11;-1495;3775;-2;65536;0.6558578;-0.6385041;-0.2313019;-0.3296399;-12;16;-10;428;4165;327;8192;0.5623268;-0.6601449;-0.4722992;-0.1578947;0;-3;5;1788;3489;171;32768;0.6398892;-0.7366937;-0.1703601;-0.1371191;-7;-2;4;-499;4027;565;256;-0.04847645;-0.02631579;-0.9965304;0.06232687;4;1;0;243;-632;3919;128;0.08448754;-0.03047091;0.9906707;0.1024931;-3;0;0;171;825;-4114;4;0.3088643;-0.7552339;0.5609418;0.1398892;0;-7;-4;-2937;2628;-700;16;0.04986149;-0.9614543;-0.2354571;-0.132964;-1;-2;-1;-1775;608;3670;2;0.1828255;-0.6232687;-0.6811026;-0.3379501;0;-2;1;2785;2668;-95;8;0.1246537;-0.9833717;0.1301939;0.02216066;-7;-5;-1;1269;907;3739;1.042145;1.917642;2.113611;1.04186;1.891671;1.568682;1.041588;1.866823;1.089787;1.037257;1.77178;0.3621809;0.7751641;1.703732;0.04370821;0.4379496;1.800229;0.1745279;0.1167931;0.9379243;0.06674667;0;0;0;1.294951;1.679656;0.04375654;1.587287;1.746994;0.174636;1.925104;0.8889734;0.4538402;1.954234;-0.04907525;0.5842395;0.7303298;1.915584;2.159426;0.6477885;1.002983;3.30013;0.4670936;0.7855905;4.616344;0.7303298;1.915584;2.159426;0.6477885;1.002983;3.30013;0.4670936;0.7855905;4.616344
1095778.4922;NotLabelled;NONE;16384;0.7332746;-0.6481994;0.05401662;-0.1980609;0;12;-7;-1615;3761;-376;65536;0.6540154;-0.6398892;-0.232687;-0.3296399;-6;4;-7;342;4191;403;8192;0.5609418;-0.6616513;-0.4722992;-0.1565097;0;-5;6;1912;3569;173;32768;0.6398892;-0.7367536;-0.1689751;-0.1385041;-4;0;3;-241;4073;637;256;-0.04847645;-0.02631579;-0.9965304;0.06232687;1;0;0;175;-584;3991;128;0.08448754;-0.03047091;0.9906707;0.1024931;-1;-2;0;363;845;-4012;4;0.3074792;-0.7557988;0.5609418;0.1398892;0;0;-4;-2993;2490;-702;16;0.04986149;-0.9614543;-0.2354571;-0.132964;-2;-4;0;-1755;604;3528;2;0.1828255;-0.6232687;-0.6811026;-0.3379501;0;-6;1;2907;2664;-199;8;0.1232687;-0.9831756;0.132964;0.02216066;-7;-8;0;1263;917;3769;1.045209;1.914278;2.111277;1.044924;1.888307;1.566348;1.044651;1.863459;1.087453;1.04033;1.770433;0.3595861;0.7782372;1.703305;0.04091813;0.4410318;1.799486;0.1719942;0.1182457;0.9380668;0.06201495;0;0;0;1.29802;1.679156;0.04091516;1.590362;1.74609;0.1719896;1.928207;0.8872982;0.4487768;1.956921;-0.05028176;0.582598;0.7333932;1.91222;2.157092;0.6492271;0.9999808;3.297967;0.4674041;0.7866131;4.614684;0.7333932;1.91222;2.157092;0.6492271;0.9999808;3.297967;0.4674041;0.7866131;4.614684
1095799.554;NotLabelled;NONE;16384;0.7314619;-0.6495845;0.0567867;-0.199446;1;-11;-3;-1545;3915;424;65536;0.6526883;-0.6426592;-0.232687;-0.3268698;0;-11;-6;368;4135;-1;8192;0.5609418;-0.6619774;-0.4722992;-0.1551246;1;-4;6;1772;3725;159;32768;0.6385041;-0.737693;-0.1689751;-0.1398892;-3;6;2;-305;3983;485;256;-0.04847645;-0.02770083;-0.9964929;0.06232687;3;-2;-2;177;-628;4077;128;0.08448754;-0.02908587;0.9905681;0.1038781;-6;-6;3;307;751;-4068;4;0.3074792;-0.7550243;0.5623268;0.1385041;0;-2;-2;-3349;2426;-700;16;0.04986149;-0.9616448;-0.2354571;-0.1315789;-3;-3;0;-1811;648;3494;2;0.1828255;-0.6246537;-0.6798326;-0.3379501;1;-11;2;3013;2638;-157;8;0.1218837;-0.98316;0.134349;0.02216066;-6;-9;0;1231;905;3763;1.046119;1.914085;2.106853;1.045834;1.888114;1.561925;1.045562;1.863266;1.083029;1.04124;1.77024;0.3551624;0.7791474;1.703112;0.03649454;0.4419422;1.799293;0.1675707;0.1177451;0.9384192;0.05746935;0;0;0;1.298931;1.678963;0.03649157;1.591272;1.745897;0.167566;1.929569;0.8885144;0.4481463;1.9546;-0.04922163;0.5816102;0.7343036;1.912026;2.152669;0.6528795;1.00234;3.295778;0.4710565;0.7889723;4.612494;0.7343036;1.912026;2.152669;0.6528795;1.00234;3.295778;0.4710565;0.7889723;4.612494
1095820.5317;NotLabelled;NONE;16384;0.7318382;-0.6495845;0.0567867;-0.1980609;0;-8;-1;-1029;3913;382;65536;0.6533801;-0.6426592;-0.232687;-0.3254848;0;-9;-4;468;4047;161;8192;0.5609418;-0.6619774;-0.4722992;-0.1551246;2;1;4;1814;3677;249;32768;0.6385041;-0.737429;-0.1689751;-0.1412742;-5;7;2;-11;4081;369;256;-0.04847645;-0.02770083;-0.9965785;0.06094183;6;-2;-3;119;-674;4037;128;0.08310249;-0.02770083;0.9905788;0.1052632;-6;-6;2;57;847;-4248;4;0.3074792;-0.7539908;0.5637119;0.1385041;-1;-10;-2;-3227;2574;-728;16;0.04847645;-0.9620537;-0.234072;-0.1315789;-2;-1;-2;-1851;572;3698;2;0.1814404;-0.6260388;-0.6796166;-0.3365651;3;-9;3;3115;2728;-93;8;0.1204986;-0.9831405;0.1357341;0.02216066;-5;-10;0;1203;983;3821;1.049901;1.909101;2.095834;1.049632;1.884503;1.550842;1.049372;1.860862;1.071886;1.044789;1.767741;0.3440323;0.7825098;1.70129;0.0253763;0.4455722;1.798422;0.1564405;0.1160281;0.939014;0.05085479;0;0;0;1.302225;1.675706;0.02537414;1.59475;1.741852;0.1564362;1.934848;0.8853796;0.4376184;1.957553;-0.05200303;0.5739524;0.7380846;1.906927;2.141636;0.652382;0.9996495;3.286346;0.4743987;0.7871337;4.603725;0.7380846;1.906927;2.141636;0.652382;0.9996495;3.286346;0.4743987;0.7871337;4.603725
1095841.136;NotLabelled;NONE;16384;0.7318382;-0.6495845;0.0567867;-0.1980609;0;0;-2;-1425;3855;324;65536;0.6540682;-0.6426592;-0.232687;-0.3240997;0;-5;-1;394;4107;157;8192;0.5609418;-0.6623005;-0.4722992;-0.1537396;-3;-9;5;1696;3655;419;32768;0.6371191;-0.7386259;-0.1689751;-0.1412742;-6;-3;1;-175;4021;555;256;-0.04709141;-0.02770083;-0.996645;0.06094183;5;-2;-3;205;-594;4067;128;0.08310249;-0.02770083;0.9905788;0.1052632;-3;-4;1;147;955;-4212;4;0.3074792;-0.7529532;0.5650969;0.1385041;-1;-9;-3;-3107;2576;-702;16;0.04847645;-0.9620537;-0.234072;-0.1315789;-1;-3;-2;-1791;594;3686;2;0.1814404;-0.6274238;-0.6783382;-0.3365651;3;-7;3;3075;2856;-13;8;0.1191136;-0.9831171;0.1371191;0.02216066;-4;-8;0;1171;931;3865;1.046029;1.905039;2.094611;1.045774;1.881789;1.54956;1.045527;1.859332;1.070547;1.041099;1.768229;0.3424373;0.7788846;1.702698;0.02353777;0.4419305;1.799512;0.1547932;0.1140377;0.9392463;0.0510724;0;0;0;1.298596;1.677042;0.02358416;1.5911;1.742783;0.1548971;1.931114;0.8870085;0.4382967;1.951866;-0.05049777;0.5740865;0.734211;1.902752;2.140399;0.646666;0.9958435;3.285262;0.4673081;0.7873513;4.603096;0.734211;1.902752;2.140399;0.646666;0.9958435;3.285262;0.4673081;0.7873513;4.603096
1095861.6972;NotLabelled;NONE;16384;0.7318382;-0.6495845;0.0567867;-0.1980609;0;0;-1;-1473;3727;278;65536;0.6531966;-0.6440443;-0.2313019;-0.3240997;-1;-4;-2;480;4009;187;8192;0.5609418;-0.6626205;-0.4722992;-0.1523546;-2;-9;6;1898;3629;187;32768;0.6371191;-0.7383596;-0.1689751;-0.1426593;-3;-1;1;-255;4027;587;256;-0.04709141;-0.02770083;-0.9967287;0.05955679;2;-3;-2;149;-382;3971;128;0.08310249;-0.02631579;0.9904684;0.1066482;-2;-2;1;171;1019;-4010;4;0.3060942;-0.7524766;0.566482;0.1385041;0;-4;-3;-3167;2502;-716;16;0.04709141;-0.9626467;-0.232687;-0.1301939;-1;-8;-2;-1741;534;3606;2;0.1814404;-0.6288089;-0.6770545;-0.3365651;2;-5;3;3033;2898;-109;8;0.1191136;-0.9829229;0.1385041;0.02216066;-3;-3;1;1133;951;3753;1.043735;1.904841;2.098017;1.04348;1.881591;1.552966;1.043234;1.859133;1.073952;1.038723;1.768081;0.3458376;0.7764679;1.702617;0.02695717;0.4395425;1.799481;0.1582497;0.1119199;0.9394734;0.05157111;0;0;0;1.296175;1.67687;0.02695453;1.588703;1.742552;0.1582451;1.92975;0.8869936;0.4410526;1.949706;-0.05002213;0.5803034;0.7319171;1.902554;2.143805;0.6396506;0.9960172;3.288592;0.4567674;0.7875254;4.605943;0.7319171;1.902554;2.143805;0.6396506;0.9960172;3.288592;0.4567674;0.7875254;4.605943
1095882.49;NotLabelled;NONE;16384;0.7317294;-0.6495845;0.05817174;-0.1980609;0;-2;0;-1451;3741;218;65536;0.653882;-0.6440443;-0.2313019;-0.3227147;0;-3;-2;548;4061;187;8192;0.5609418;-0.663922;-0.4709141;-0.1509695;0;-3;3;1936;3605;-29;32768;0.6357341;-0.7398676;-0.16759;-0.1426593;-2;1;0;-81;3997;717;256;-0.04709141;-0.02908587;-0.9966893;0.05955679;2;-2;-3;313;-394;3985;128;0.08171745;-0.02631579;0.9905836;0.1066482;-2;-2;2;167;931;-3966;4;0.3060942;-0.7524766;0.566482;0.1385041;0;-3;-2;-3321;2598;-700;16;0.04709141;-0.9629804;-0.2313019;-0.1301939;-2;-4;-1;-1853;554;3634;2;0.1800554;-0.6301939;-0.6761358;-0.3365651;4;-8;1;3171;2726;-101;8;0.1177285;-0.9828936;0.1398892;0.02216066;-3;-4;1;1133;931;3875;1.046314;1.899436;2.095937;1.046074;1.877563;1.550828;1.045841;1.856316;1.071759;1.041418;1.767282;0.3433944;0.779198;1.702738;0.0242985;0.4422675;1.799283;0.1558124;0.1146419;0.9392762;0.04914318;0;0;0;1.298901;1.676921;0.02429554;1.59142;1.7422;0.1558077;1.934227;0.8875575;0.4392593;1.952242;-0.04958057;0.5779517;0.7344942;1.897033;2.14171;0.6432433;0.9934139;3.288882;0.4627192;0.7897923;4.607319;0.7344942;1.897033;2.14171;0.6432433;0.9934139;3.288882;0.4627192;0.7897923;4.607319
1095904.4848;NotLabelled;NONE;16384;0.7308716;-0.6509695;0.05817174;-0.1966759;3;-7;2;-1461;3843;66;65536;0.6545637;-0.6440443;-0.2313019;-0.3213296;4;-9;2;348;4105;221;8192;0.5595568;-0.6641068;-0.4722992;-0.1509695;2;4;2;1776;3649;23;32768;0.6357341;-0.7395526;-0.1689751;-0.1426593;0;6;-1;-193;4053;553;256;-0.04709141;-0.02908587;-0.9966893;0.05955679;3;-2;-2;209;-548;4099;128;0.08171745;-0.02631579;0.9905836;0.1066482;-4;-4;2;279;845;-4192;4;0.3060942;-0.7514319;0.567867;0.1385041;0;-5;-2;-3235;2630;-650;16;0.04709141;-0.9629804;-0.2313019;-0.1301939;-1;1;-2;-1833;656;3710;2;0.1800554;-0.6315789;-0.6748423;-0.3365651;3;-5;1;3283;2826;-55;8;0.1163435;-0.9830586;0.1398892;0.02216066;-2;-5;1;1065;989;3953;1.04634;1.897538;2.095595;1.0461;1.87564;1.550487;1.045866;1.85437;1.07142;1.041192;1.765244;0.3430675;0.7787922;1.701378;0.02398244;0.4421307;1.798873;0.1554851;0.1126693;0.939505;0.04931701;0;0;0;1.298422;1.674126;0.02397934;1.591121;1.738615;0.1554799;1.933935;0.8842405;0.4397283;1.949792;-0.05240166;0.5819885;0.7345206;1.895138;2.141368;0.643472;0.9915184;3.288556;0.4628891;0.7883404;4.607054;0.7345206;1.895138;2.141368;0.643472;0.9915184;3.288556;0.4628891;0.7883404;4.607054
1095924.5934;NotLabelled;NONE;16384;0.731243;-0.6509695;0.05817174;-0.1952908;2;-9;2;-1477;3819;312;65536;0.6557291;-0.6440443;-0.2299169;-0.3199446;5;-10;1;542;4073;91;8192;0.5595568;-0.6637905;-0.4722992;-0.1523546;2;2;0;1892;3677;245;32768;0.6357341;-0.7389661;-0.1703601;-0.1440443;0;2;-2;-249;4033;497;256;-0.04570637;-0.02908587;-0.9968355;0.05817174;4;-2;-2;133;-660;4115;128;0.08171745;-0.02493075;0.9904693;0.1080332;-1;-3;1;159;943;-4188;4;0.3060942;-0.7503833;0.5692521;0.1385041;-1;-4;-1;-3251;2632;-588;16;0.04709141;-0.9631667;-0.2313019;-0.1288089;0;-7;-1;-1603;604;3744;2;0.1786704;-0.6315789;-0.6752103;-0.3365651;2;0;2;3169;2874;-63;8;0.1163435;-0.9830586;0.1398892;0.02216066;-1;0;1;935;1033;3911;1.042784;1.898755;2.092587;1.042544;1.876857;1.54748;1.042311;1.855587;1.068412;1.037637;1.76646;0.3400599;0.7752367;1.702595;0.02097489;0.4385752;1.800089;0.1524775;0.1106892;0.9397303;0.04951022;0;0;0;1.294867;1.675343;0.02097183;1.587566;1.739832;0.1524724;1.930844;0.8866311;0.4396721;1.948447;-0.05000532;0.5817615;0.7309652;1.896355;2.138361;0.6382602;0.9931093;3.285711;0.4576772;0.7899312;4.604208;0.7309652;1.896355;2.138361;0.6382602;0.9931093;3.285711;0.4576772;0.7899312;4.604208
1095945.4881;NotLabelled;NONE;16384;0.7315;-0.6509695;0.05955679;-0.1939058;2;-10;3;-1471;3869;246;65536;0.6568866;-0.6440443;-0.2285319;-0.3185596;6;-12;1;446;4091;161;8192;0.5595568;-0.6637905;-0.4722992;-0.1523546;0;-2;1;1892;3559;331;32768;0.6357341;-0.7392347;-0.1703601;-0.1426593;-1;0;-2;-249;4041;605;256;-0.04570637;-0.02908587;-0.9968355;0.05817174;3;-2;-2;239;-546;4055;128;0.08033241;-0.02493075;0.9905826;0.1080332;0;-3;2;125;1065;-4052;4;0.3060942;-0.7503833;0.5692521;0.1385041;-2;-3;-1;-3317;2636;-578;16;0.04709141;-0.9638277;-0.2285319;-0.1288089;0;-7;-1;-1689;598;3660;2;0.1786704;-0.6315789;-0.6752103;-0.3365651;2;-1;2;3037;2946;-43;8;0.1163435;-0.9832547;0.1385041;0.02216066;-2;5;1;987;1009;3837;1.039799;1.894209;2.094469;1.039574;1.873692;1.549308;1.039354;1.853636;1.070189;1.03484;1.766582;0.3415849;0.7725022;1.703702;0.02225231;0.4358366;1.800924;0.1539461;0.1101792;0.9397062;0.05108718;0;0;0;1.292124;1.676295;0.02230477;1.584809;1.740322;0.1540629;1.924635;0.8869308;0.4447805;1.941635;-0.04982126;0.5861824;0.7279786;1.891693;2.140228;0.6302316;0.9888259;3.287457;0.449362;0.7864867;4.606044;0.7279786;1.891693;2.140228;0.6302316;0.9888259;3.287457;0.449362;0.7864867;4.606044
1095966.4882;NotLabelled;NONE;16384;0.7318657;-0.6509695;0.05955679;-0.1925208;2;-7;3;-1459;3831;420;65536;0.659389;-0.6426592;-0.2271468;-0.3171745;6;-11;2;382;4039;63;8192;0.5581717;-0.6649556;-0.4722992;-0.1523546;0;-1;0;1826;3715;257;32768;0.634349;-0.7404236;-0.1703601;-0.1426593;0;1;-3;-221;4055;571;256;-0.04570637;-0.03047091;-0.996874;0.0567867;1;-2;-3;147;-348;4029;128;0.08033241;-0.0235457;0.9906165;0.1080332;-1;-4;2;131;1085;-4040;4;0.3060942;-0.7493305;0.5706371;0.1385041;-2;-4;-2;-3371;2632;-660;16;0.04709141;-0.9638277;-0.2285319;-0.1288089;0;-2;0;-1763;620;3702;2;0.1786704;-0.6315789;-0.6752103;-0.3365651;1;-3;1;3107;2768;-117;8;0.1163435;-0.9832547;0.1385041;0.02216066;-1;-3;0;1183;993;3847;1.04006;1.893929;2.096505;1.039834;1.873388;1.551345;1.039614;1.853311;1.072226;1.035022;1.766257;0.3436226;0.7726513;1.703377;0.02431814;0.4359994;1.800599;0.1560472;0.1098297;0.9396793;0.0523172;0;0;0;1.292273;1.675969;0.02431515;1.584972;1.739996;0.1560419;1.925676;0.8858744;0.4435667;1.944622;-0.05075395;0.5855397;0.7282393;1.891414;2.142264;0.630614;0.9885477;3.289504;0.4493069;0.7870849;4.608165;0.7282393;1.891414;2.142264;0.630614;0.9885477;3.289504;0.4493069;0.7870849;4.608165
1096007.4926;NotLabelled;NONE;16384;0.7325888;-0.6509695;0.05955679;-0.1897507;0;0;2;-1383;3797;398;65536;0.6600534;-0.6426592;-0.2271468;-0.3157895;2;-4;0;488;4061;99;8192;0.5581717;-0.6649556;-0.4722992;-0.1523546;2;0;-1;1760;3639;267;32768;0.634349;-0.7401035;-0.1717452;-0.1426593;0;1;-4;-345;4019;471;256;-0.04432133;-0.03047091;-0.9970145;0.05540166;2;0;-2;269;-366;3947;128;0.08033241;-0.0235457;0.9904645;0.1094183;-1;0;2;115;973;-4142;4;0.3060942;-0.7485288;0.5720221;0.1371191;-2;-3;-2;-3153;2616;-690;16;0.04709141;-0.9638277;-0.2285319;-0.1288089;0;-1;1;-1685;632;3664;2;0.1772853;-0.632964;-0.6742778;-0.3365651;0;0;1;3101;2898;-91;8;0.1163435;-0.9830586;0.1398892;0.02216066;0;2;0;1125;1015;3927;1.037035;1.890503;2.101557;1.036808;1.869831;1.556401;1.036587;1.84964;1.077287;1.03185;1.764516;0.3484568;0.769345;1.703236;0.02895162;0.4329565;1.801084;0.1608892;0.1084004;0.9395704;0.05703676;0;0;0;1.288885;1.674324;0.02894881;1.581748;1.737157;0.1608847;1.921166;0.8835666;0.4514952;1.939675;-0.05255055;0.5968574;0.7252148;1.887999;2.147317;0.6260394;0.9855142;3.294724;0.4448577;0.7840521;4.613402;0.7252148;1.887999;2.147317;0.6260394;0.9855142;3.294724;0.4448577;0.7840521;4.613402
1096048.5031;NotLabelled;NONE;16384;0.7325888;-0.6509695;0.05955679;-0.1897507;2;-1;1;-1479;3827;318;65536;0.6605284;-0.6426592;-0.2257618;-0.3157895;1;-5;0;522;4075;99;8192;0.5581717;-0.6659371;-0.4709141;-0.1523546;0;-1;-1;1812;3617;347;32768;0.634349;-0.7401035;-0.1717452;-0.1426593;0;0;-2;-393;4021;541;256;-0.04432133;-0.03047091;-0.9970145;0.05540166;0;0;0;193;-426;3931;128;0.08033241;-0.0235457;0.9904645;0.1094183;1;0;0;139;967;-3980;4;0.3060942;-0.7485288;0.5720221;0.1371191;-2;-2;-2;-3077;2662;-642;16;0.04709141;-0.9641551;-0.2271468;-0.1288089;0;-2;1;-1761;636;3660;2;0.1772853;-0.632964;-0.6749673;-0.33518;0;0;1;3049;2862;-107;8;0.1163435;-0.9830586;0.1398892;0.02216066;1;-1;0;1183;955;3859;1.031198;1.886266;2.10361;1.030988;1.867109;1.558399;1.030781;1.848249;1.079231;1.026136;1.765202;0.3501602;0.7636635;1.704908;0.03044014;0.4272824;1.802478;0.1626024;0.1062731;0.9397836;0.05752683;0;0;0;1.283195;1.675846;0.03043738;1.576056;1.738218;0.1625977;1.914644;0.8846276;0.4541737;1.934483;-0.05147874;0.5994277;0.7193762;1.883636;2.149353;0.6124552;0.9836259;3.298008;0.4275182;0.7821634;4.616166;0.7193762;1.883636;2.149353;0.6124552;0.9836259;3.298008;0.4275182;0.7821634;4.616166
1096069.4885;NotLabelled;NONE;16384;0.7313557;-0.6523545;0.05955679;-0.1897507;1;-1;0;-1437;3863;296;65536;0.6625322;-0.6412742;-0.2257618;-0.3144044;1;-3;-1;510;4071;53;8192;0.5581717;-0.6659371;-0.4709141;-0.1523546;2;1;-1;1764;3611;203;32768;0.634349;-0.7400466;-0.1731302;-0.1412742;0;0;-3;-131;4071;509;256;-0.04432133;-0.03047091;-0.9970145;0.05540166;1;0;0;137;-442;4033;128;0.08033241;-0.0235457;0.9904645;0.1094183;0;-3;0;161;937;-4068;4;0.3060942;-0.7485288;0.5720221;0.1371191;0;-1;0;-3145;2532;-602;16;0.04709141;-0.9638277;-0.2285319;-0.1288089;0;4;0;-1777;634;3596;2;0.1772853;-0.634349;-0.6736658;-0.33518;0;-2;3;3033;2772;-211;8;0.1163435;-0.9830586;0.1398892;0.02216066;0;0;0;1051;1007;3755;1.03283;1.886016;2.104652;1.03262;1.866859;1.559442;1.032413;1.847998;1.080273;1.027768;1.764951;0.3512027;0.7652955;1.704657;0.03148261;0.4289144;1.802227;0.1636449;0.1079051;0.939533;0.05856931;0;0;0;1.284827;1.675595;0.03147984;1.577688;1.737967;0.1636401;1.914512;0.8837364;0.4553829;1.934352;-0.05236995;0.6006364;0.7210083;1.883385;2.150396;0.6140873;0.9833753;3.29905;0.4288622;0.782352;4.617235;0.7210083;1.883385;2.150396;0.6140873;0.9833753;3.29905;0.4288622;0.782352;4.617235
1096090.4906;NotLabelled;NONE;16384;0.7317137;-0.6523545;0.05955679;-0.1883656;1;-2;0;-1501;3785;348;65536;0.6625322;-0.6412742;-0.2257618;-0.3144044;2;-3;-1;522;4025;101;8192;0.5581717;-0.6659371;-0.4709141;-0.1523546;2;0;-1;1794;3689;379;32768;0.634349;-0.7400466;-0.1731302;-0.1412742;-1;-1;-3;-435;3967;395;256;-0.04432133;-0.03047091;-0.9970904;0.05401662;1;0;-1;205;-508;4013;128;0.08033241;-0.02216066;0.9904965;0.1094183;0;-1;0;95;837;-4126;4;0.3060942;-0.7485288;0.5720221;0.1371191;0;0;0;-3129;2522;-572;16;0.04709141;-0.9638277;-0.2285319;-0.1288089;0;0;0;-1813;644;3624;2;0.1772853;-0.634349;-0.6736658;-0.33518;0;0;1;3051;2822;-173;8;0.1163435;-0.9830586;0.1398892;0.02216066;0;0;0;1181;979;3713;1.029826;1.886512;2.104954;1.029616;1.867355;1.559744;1.029409;1.848494;1.080575;1.024764;1.765447;0.3515046;0.7622917;1.705153;0.03178449;0.4259106;1.802724;0.1639468;0.1048599;0.9396424;0.06223424;0;0;0;1.281824;1.676091;0.0317817;1.574684;1.738464;0.163942;1.911508;0.8842328;0.4556847;1.935023;-0.05172479;0.6013476;0.7180045;1.883882;2.150697;0.6110835;0.9838717;3.299352;0.4261464;0.7824092;4.617509;0.7180045;1.883882;2.150697;0.6110835;0.9838717;3.299352;0.4261464;0.7824092;4.617509
1096131.5822;NotLabelled;NONE;16384;0.7315996;-0.6523545;0.06094183;-0.1883656;1;-3;0;-1333;3785;286;65536;0.6618456;-0.6426592;-0.2257618;-0.3130194;2;-5;-1;484;4103;87;8192;0.5581717;-0.6659371;-0.4709141;-0.1523546;0;-1;0;1826;3621;473;32768;0.632964;-0.7412315;-0.1731302;-0.1412742;-2;-5;-2;-345;3971;513;256;-0.04432133;-0.03047091;-0.9970904;0.05401662;0;0;0;243;-490;4007;128;0.08033241;-0.02216066;0.9904965;0.1094183;0;0;1;141;873;-4076;4;0.3060942;-0.7485288;0.5720221;0.1371191;0;-1;-1;-3099;2554;-674;16;0.04709141;-0.9640118;-0.2285319;-0.1274238;0;-2;0;-1791;620;3580;2;0.1772853;-0.634349;-0.6743531;-0.333795;0;0;1;2859;2760;-111;8;0.1163435;-0.9830586;0.1398892;0.02216066;0;0;0;1157;943;3767;1.02805;1.884726;2.105346;1.027839;1.865439;1.56014;1.027631;1.846465;1.080976;1.023088;1.765439;0.3516775;0.7606581;1.706064;0.03175089;0.4242688;1.80331;0.1641307;0.1048546;0.9396427;0.06224315;0;0;0;1.280186;1.676936;0.03174791;1.573034;1.738904;0.1641259;1.909836;0.8846731;0.4558945;1.93334;-0.05128479;0.6015592;0.7162288;1.882106;2.151091;0.6092186;0.9820967;3.299737;0.424179;0.7806339;4.617879;0.7162288;1.882106;2.151091;0.6092186;0.9820967;3.299737;0.424179;0.7806339;4.617879
1096152.5988;NotLabelled;NONE;16384;0.7315996;-0.6523545;0.06094183;-0.1883656;1;-2;0;-1417;3823;386;65536;0.6638396;-0.6412742;-0.2257618;-0.3116343;0;-1;0;358;4049;49;8192;0.5595568;-0.6647738;-0.4709141;-0.1523546;-1;-3;0;1884;3575;285;32768;0.632964;-0.7414941;-0.1731302;-0.1398892;-3;-9;-2;-167;4037;539;256;-0.04432133;-0.03047091;-0.9970904;0.05401662;0;0;-1;217;-430;3983;128;0.07894737;-0.02216066;0.9906079;0.1094183;2;0;0;165;925;-3920;4;0.3060942;-0.7485288;0.5720221;0.1371191;0;-1;0;-3185;2474;-646;16;0.04847645;-0.9639432;-0.2285319;-0.1274238;0;-3;0;-1835;558;3570;2;0.1772853;-0.634349;-0.6743531;-0.333795;0;-1;1;2973;2688;-111;8;0.1163435;-0.9830586;0.1398892;0.02216066;0;-1;0;1127;895;3733;1.029003;1.884415;2.101562;1.028791;1.865128;1.556356;1.028583;1.846153;1.077192;1.02404;1.765128;0.347894;0.7616104;1.705753;0.02796747;0.4252212;1.802999;0.1603473;0.1039796;0.9399531;0.05893974;0;0;0;1.281139;1.676624;0.02796447;1.573986;1.738593;0.1603425;1.910789;0.884362;0.4521117;1.933829;-0.05107462;0.6011593;0.7171812;1.881795;2.147307;0.6101711;0.9817855;3.295954;0.4287354;0.7811518;4.614724;0.7171812;1.881795;2.147307;0.6101711;0.9817855;3.295954;0.4287354;0.7811518;4.614724
1096172.6351;NotLabelled;NONE;16384;0.7315996;-0.6523545;0.06094183;-0.1883656;1;2;0;-1321;3831;436;65536;0.6638396;-0.6412742;-0.2257618;-0.3116343;0;1;0;516;4021;1;8192;0.5595568;-0.6657528;-0.4695291;-0.1523546;0;-1;-1;1914;3609;131;32768;0.632964;-0.7418162;-0.1717452;-0.1398892;-1;-2;-2;-293;4029;569;256;-0.04432133;-0.03047091;-0.9970904;0.05401662;1;-1;0;237;-472;4069;128;0.07894737;-0.02216066;0.9906079;0.1094183;0;-3;0;107;883;-4040;4;0.3060942;-0.7477211;0.5734072;0.1357341;0;-1;0;-3209;2520;-616;16;0.04709141;-0.9640118;-0.2285319;-0.1274238;0;0;0;-1753;614;3666;2;0.1772853;-0.634349;-0.6743531;-0.333795;0;-2;1;3039;2644;-159;8;0.1163435;-0.9828604;0.1412742;0.02216066;0;-1;0;1107;903;3853;1.025971;1.884541;2.105253;1.025759;1.865235;1.560048;1.025551;1.846244;1.080885;1.021007;1.765217;0.351586;0.7585765;1.705842;0.03165966;0.4221874;1.803089;0.1640401;0.1009454;0.9400464;0.0626028;0;0;0;1.278105;1.676714;0.03165627;1.570953;1.738683;0.1640339;1.909075;0.8839055;0.4526579;1.934052;-0.05139184;0.6022679;0.7141494;1.881923;2.150998;0.607141;0.9819132;3.299646;0.4265465;0.7776939;4.61798;0.7141494;1.881923;2.150998;0.607141;0.9819132;3.299646;0.4265465;0.7776939;4.61798
1096193.4894;NotLabelled;NONE;16384;0.7317137;-0.6523545;0.05955679;-0.1883656;0;0;0;-1457;3857;516;65536;0.6624989;-0.6426592;-0.2257618;-0.3116343;-1;1;0;456;4085;-9;8192;0.5581717;-0.6669144;-0.4695291;-0.1523546;0;1;0;1856;3671;171;32768;0.632964;-0.742076;-0.1717452;-0.1385041;-1;-4;-2;-203;4039;527;256;-0.04432133;-0.03047091;-0.9970904;0.05401662;2;0;0;189;-484;4017;128;0.07894737;-0.02216066;0.9906079;0.1094183;-1;-1;0;103;837;-4150;4;0.3060942;-0.7477211;0.5734072;0.1357341;0;-1;-1;-3141;2582;-574;16;0.04709141;-0.9640118;-0.2285319;-0.1274238;0;0;0;-1671;596;3724;2;0.1759003;-0.634349;-0.6747158;-0.333795;0;-1;1;2965;2750;-173;8;0.1163435;-0.9830586;0.1398892;0.02216066;0;0;0;1031;983;3867;1.02597;1.884545;2.105224;1.025758;1.865239;1.560019;1.025549;1.846248;1.080855;1.021006;1.765221;0.3515565;0.7585764;1.705846;0.03163013;0.4221872;1.803093;0.1640102;0.1009453;0.9400465;0.06260268;0;0;0;1.278105;1.676718;0.03162715;1.570952;1.738686;0.1640052;1.907308;0.8832791;0.4528278;1.930546;-0.05203688;0.6025978;0.7141479;1.881927;2.150969;0.6026632;0.9844091;3.301139;0.4212274;0.7837753;4.619909;0.7141479;1.881927;2.150969;0.6026632;0.9844091;3.301139;0.4212274;0.7837753;4.619909
1096213.486;NotLabelled;NONE;16384;0.7317137;-0.6523545;0.05955679;-0.1883656;0;-1;0;-1491;3753;286;65536;0.6624989;-0.6426592;-0.2257618;-0.3116343;-1;0;-1;526;3991;97;8192;0.5581717;-0.6669144;-0.4695291;-0.1523546;0;0;-2;1922;3713;285;32768;0.632964;-0.742076;-0.1717452;-0.1385041;-1;-5;-1;-341;4033;485;256;-0.04432133;-0.03047091;-0.9970904;0.05401662;1;0;0;269;-484;4005;128;0.07894737;-0.02077562;0.9906378;0.1094183;0;-3;0;85;905;-4046;4;0.3047091;-0.7482866;0.5734072;0.1357341;0;-2;-1;-3113;2540;-580;16;0.04847645;-0.9642705;-0.2271468;-0.1274238;0;-3;0;-1685;588;3606;2;0.1759003;-0.6357341;-0.6734108;-0.333795;0;-2;2;2925;2752;-157;8;0.1163435;-0.9828604;0.1412742;0.02216066;0;0;0;1095;951;3815;1.025218;1.885276;2.102221;1.025007;1.86597;1.557015;1.024798;1.846978;1.077852;1.020255;1.765952;0.3485531;0.7578253;1.706577;0.0286268;0.4214361;1.803824;0.1610069;0.1020216;0.9401559;0.05911932;0;0;0;1.277353;1.677449;0.02862382;1.570201;1.739417;0.1610019;1.905241;0.8845502;0.4529382;1.930417;-0.0506264;0.6032633;0.7133967;1.882658;2.147966;0.6019121;0.9851397;3.298136;0.4204763;0.784506;4.616906;0.7133967;1.882658;2.147966;0.6019121;0.9851397;3.298136;0.4204763;0.784506;4.616906
1096233.7645;NotLabelled;NONE;16384;0.7317137;-0.6523545;0.05955679;-0.1883656;0;4;-1;-1527;3783;144;65536;0.6624989;-0.6426592;-0.2257618;-0.3116343;0;2;-1;492;4063;147;8192;0.5595568;-0.6657528;-0.4695291;-0.1523546;-1;2;-2;2020;3641;439;32768;0.632964;-0.7423332;-0.1717452;-0.1371191;-4;-5;-1;-437;3927;479;256;-0.04432133;-0.03047091;-0.9971645;0.05263158;1;0;1;231;-420;3961;128;0.07894737;-0.02077562;0.9906378;0.1094183;1;0;0;173;931;-3938;4;0.3047091;-0.7482866;0.5734072;0.1357341;0;-1;-2;-3259;2444;-622;16;0.04709141;-0.9643391;-0.2271468;-0.1274238;0;0;0;-1709;512;3580;2;0.1759003;-0.6357341;-0.6734108;-0.333795;0;-4;1;3037;2722;-117;8;0.1163435;-0.9828604;0.1412742;0.02216066;0;-1;0;1139;943;3787;1.025233;1.885491;2.1024;1.02502;1.866057;1.557199;1.02481;1.846954;1.07804;1.02026;1.765928;0.3487415;0.7578266;1.706553;0.02881773;0.4214388;1.8038;0.1612014;0.1020225;0.9401555;0.0591187;0;0;0;1.277355;1.677424;0.02880955;1.570204;1.739393;0.1611847;1.905249;0.8844578;0.4529152;1.930426;-0.0507189;0.6032405;0.7134118;1.882883;2.148147;0.6047044;0.9878922;3.300549;0.4238302;0.7841058;4.618912;0.7134118;1.882883;2.148147;0.6047044;0.9878922;3.300549;0.4238302;0.7841058;4.618912
1096255.4932;NotLabelled;NONE;16384;0.7313557;-0.6523545;0.05955679;-0.1897507;1;0;0;-1515;3761;194;65536;0.6620253;-0.6426592;-0.2271468;-0.3116343;0;0;-1;496;4123;73;8192;0.5595568;-0.6644549;-0.4709141;-0.1537396;-2;1;-1;1716;3537;251;32768;0.6315789;-0.7438306;-0.1703601;-0.1371191;-5;-4;-1;-345;3971;579;256;-0.04570637;-0.03047091;-0.997102;0.05263158;0;0;1;143;-370;4013;128;0.08033241;-0.02077562;0.9905265;0.1094183;0;2;0;159;877;-3964;4;0.3047091;-0.7472232;0.5747922;0.1357341;0;-1;-1;-3157;2476;-654;16;0.04709141;-0.9645211;-0.2271468;-0.1260388;0;1;0;-1739;596;3616;2;0.1759003;-0.6357341;-0.6734108;-0.333795;0;-1;0;3133;2740;-145;8;0.1163435;-0.9828604;0.1412742;0.02216066;-2;-3;0;1025;917;3805;1.025071;1.882899;2.102454;1.024858;1.863465;1.557254;1.024648;1.844362;1.078095;1.020209;1.765357;0.3485737;0.7578207;1.706902;0.02844302;0.4214233;1.803824;0.1610403;0.1020171;0.9401561;0.0591277;0;0;0;1.277345;1.677707;0.02844006;1.57018;1.739271;0.1610351;1.906514;0.883864;0.4498833;1.933618;-0.05117047;0.6007586;0.7132494;1.880291;2.148201;0.6044412;0.9852992;3.300594;0.4226166;0.7850996;4.619377;0.7132494;1.880291;2.148201;0.6044412;0.9852992;3.300594;0.4226166;0.7850996;4.619377
1096275.4845;NotLabelled;NONE;16384;0.7313557;-0.6523545;0.05955679;-0.1897507;1;-2;0;-1371;3783;300;65536;0.6620253;-0.6426592;-0.2271468;-0.3116343;0;-1;0;448;4087;19;8192;0.5595568;-0.6657528;-0.4695291;-0.1523546;-1;0;0;1872;3583;283;32768;0.6301939;-0.7450043;-0.1703601;-0.1371191;-3;-3;0;-387;3981;567;256;-0.04570637;-0.03047091;-0.997102;0.05263158;2;0;0;253;-480;3985;128;0.08033241;-0.02077562;0.9905265;0.1094183;0;-2;0;149;897;-4056;4;0.3047091;-0.7469703;0.5747922;0.1371191;0;-1;0;-3079;2652;-658;16;0.04709141;-0.9645211;-0.2271468;-0.1260388;-1;2;0;-1739;670;3638;2;0.1759003;-0.6357341;-0.6734108;-0.333795;0;-1;0;3061;2738;-117;8;0.1149584;-0.9830234;0.1412742;0.02216066;-2;-2;0;1156;978;3876;1.025778;1.882685;2.099171;1.025565;1.863268;1.55397;1.025355;1.844181;1.074811;1.020926;1.765118;0.3452957;0.7585458;1.706599;0.02517051;0.4221342;1.803482;0.1577605;0.1005401;0.9403969;0.05780576;0;0;0;1.278075;1.677482;0.02516854;1.570901;1.7391;0.1577576;1.908838;0.8834275;0.4439352;1.934187;-0.05109072;0.5982751;0.7139564;1.880076;2.144918;0.6066906;0.9854823;3.297765;0.4321282;0.7861069;4.617652;0.7139564;1.880076;2.144918;0.6066906;0.9854823;3.297765;0.4321282;0.7861069;4.617652
1096296.4936;NotLabelled;NONE;16384;0.7313557;-0.6523545;0.05955679;-0.1897507;0;-2;0;-1399;3845;400;65536;0.6620253;-0.6426592;-0.2271468;-0.3116343;0;0;-1;512;4037;59;8192;0.5595568;-0.6647738;-0.4709141;-0.1523546;-1;-1;1;1944;3537;345;32768;0.6301939;-0.7453197;-0.1689751;-0.1371191;-3;-5;0;-281;3987;519;256;-0.04570637;-0.03047091;-0.997102;0.05263158;1;-1;0;199;-494;3971;128;0.08033241;-0.02077562;0.9905265;0.1094183;0;-2;0;159;923;-4050;4;0.3047091;-0.7469703;0.5747922;0.1371191;0;0;-1;-3111;2544;-546;16;0.04709141;-0.9645211;-0.2271468;-0.1260388;-1;0;0;-1773;564;3598;2;0.1759003;-0.6371191;-0.6721006;-0.333795;0;-1;0;2969;2746;-171;8;0.1149584;-0.9827912;0.1426593;0.0235457;-1;-3;-1;1218;940;3820;1.025501;1.882682;2.100088;1.025288;1.863266;1.554887;1.025078;1.844177;1.075727;1.020648;1.765115;0.3462129;0.7582673;1.706596;0.02608795;0.421856;1.803479;0.1586788;0.1005401;0.9403971;0.05780633;0;0;0;1.277796;1.67748;0.02608499;1.570623;1.739098;0.1586736;1.907755;0.8836907;0.4465888;1.932669;-0.05027676;0.6042962;0.7136794;1.880073;2.145835;0.609225;0.9833747;3.297303;0.4346644;0.7839988;4.617191;0.7136794;1.880073;2.145835;0.609225;0.9833747;3.297303;0.4346644;0.7839988;4.617191
1096317.4852;NotLabelled;NONE;16384;0.7313557;-0.6523545;0.05955679;-0.1897507;0;1;-2;-1481;3889;440;65536;0.6620253;-0.6426592;-0.2271468;-0.3116343;-1;3;-1;604;4103;73;8192;0.5595568;-0.6647738;-0.4709141;-0.1523546;-2;-3;2;1738;3735;337;32768;0.6301939;-0.7455732;-0.1689751;-0.1357341;-3;-4;1;-249;4005;571;256;-0.04570637;-0.03047091;-0.997102;0.05263158;0;-1;0;215;-388;3981;128;0.08033241;-0.02077562;0.9905265;0.1094183;0;1;0;43;979;-3948;4;0.3047091;-0.7469703;0.5747922;0.1371191;0;0;0;-3235;2460;-654;16;0.04709141;-0.9645211;-0.2271468;-0.1260388;-1;0;0;-1793;528;3624;2;0.1759003;-0.6371191;-0.6721006;-0.333795;0;-2;0;2993;2756;-133;8;0.1149584;-0.9827912;0.1426593;0.0235457;-2;-2;0;1162;942;3734;1.025501;1.882682;2.100088;1.025288;1.863265;1.554887;1.025078;1.844177;1.075727;1.020648;1.765115;0.3462129;0.7582673;1.706596;0.02608795;0.421856;1.803479;0.1586788;0.1005401;0.9403971;0.05780633;0;0;0;1.277796;1.67748;0.02608499;1.570623;1.739098;0.1586736;1.909521;0.8843311;0.4464169;1.932707;-0.04965365;0.6042884;0.7136794;1.880073;2.145835;0.609225;0.9833747;3.297303;0.4346644;0.7839988;4.617191;0.7136794;1.880073;2.145835;0.609225;0.9833747;3.297303;0.4346644;0.7839988;4.617191
1096338.4875;NotLabelled;NONE;16384;0.7313557;-0.6523545;0.05955679;-0.1897507;1;3;-1;-1453;3827;232;65536;0.6608942;-0.6426592;-0.2285319;-0.3130194;-1;2;-1;472;4091;59;8192;0.5595568;-0.6647738;-0.4709141;-0.1523546;-2;-5;1;1810;3655;235;32768;0.6301939;-0.7458857;-0.16759;-0.1357341;-1;-2;0;-245;4051;673;256;-0.04570637;-0.03047091;-0.9971741;0.05124654;0;-1;0;229;-380;3995;128;0.08033241;-0.02077562;0.9905265;0.1094183;0;0;0;109;923;-3976;4;0.3047091;-0.7469703;0.5747922;0.1371191;0;0;0;-3185;2452;-556;16;0.04709141;-0.9645211;-0.2271468;-0.1260388;-1;-1;-1;-1703;548;3622;2;0.1759003;-0.6371191;-0.6721006;-0.333795;0;0;0;3097;2758;-133;8;0.1135734;-0.9827502;0.1440443;0.0235457;-2;0;0;1194;920;3892;1.025501;1.882682;2.100088;1.025288;1.863265;1.554887;1.025078;1.844177;1.075727;1.020648;1.765115;0.3462129;0.7582673;1.706596;0.02608795;0.421856;1.803479;0.1586788;0.1005401;0.9403971;0.05780633;0;0;0;1.277796;1.67748;0.02608499;1.570623;1.739098;0.1586736;1.909521;0.8843311;0.4464169;1.934657;-0.04951215;0.6048223;0.7136794;1.880073;2.145835;0.609225;0.9833747;3.297303;0.4346644;0.7839988;4.617191;0.7136794;1.880073;2.145835;0.609225;0.9833747;3.297303;0.4346644;0.7839988;4.617191
1096359.4841;NotLabelled;NONE;16384;0.7313557;-0.6523545;0.05955679;-0.1897507;0;0;-2;-1533;3843;278;65536;0.6608942;-0.6426592;-0.2285319;-0.3130194;-1;1;-2;458;4103;107;8192;0.5609418;-0.6649022;-0.4695291;-0.1509695;0;-2;1;1866;3677;171;32768;0.6301939;-0.7458857;-0.16759;-0.1357341;-2;-1;1;-431;4005;617;256;-0.04570637;-0.03047091;-0.9971741;0.05124654;1;0;0;243;-440;4035;128;0.08033241;-0.02077562;0.9905265;0.1094183;-2;-1;0;119;875;-4102;4;0.3047091;-0.7469703;0.5747922;0.1371191;0;-2;0;-3159;2502;-564;16;0.04709141;-0.9647011;-0.2271468;-0.1246537;-1;0;0;-1787;648;3650;2;0.1759003;-0.6371191;-0.6721006;-0.333795;0;0;1;3031;2792;-175;8;0.1135734;-0.9827502;0.1440443;0.0235457;-1;1;0;1194;970;3856;1.025676;1.880102;2.099091;1.025463;1.860686;1.55389;1.025254;1.841598;1.074731;1.020926;1.764557;0.3449987;0.7585876;1.706959;0.02467264;0.4221683;1.803518;0.1574789;0.1008602;0.9404368;0.05658178;0;0;0;1.278112;1.677774;0.02466935;1.570926;1.738987;0.1574737;1.909803;0.8842199;0.4452426;1.9332;-0.04964077;0.6038141;0.7138547;1.877493;2.144838;0.6093113;0.9807951;3.296299;0.4346491;0.7814193;4.616174;0.7138547;1.877493;2.144838;0.6093113;0.9807951;3.296299;0.4346491;0.7814193;4.616174
1096379.6161;NotLabelled;NONE;16384;0.7312416;-0.6523545;0.06094183;-0.1897507;0;-3;-3;-1535;3817;424;65536;0.6608942;-0.6426592;-0.2285319;-0.3130194;-1;1;-3;592;4023;41;8192;0.5609418;-0.6649022;-0.4695291;-0.1509695;-1;0;1;1900;3643;293;32768;0.6301939;-0.7456324;-0.16759;-0.1371191;-1;-4;1;-337;4011;631;256;-0.04570637;-0.03185596;-0.9971308;0.05124654;2;-1;0;235;-510;4019;128;0.08033241;-0.02077562;0.9905265;0.1094183;-1;0;0;139;903;-4102;4;0.3033241;-0.7475338;0.5747922;0.1371191;0;0;-2;-3105;2534;-624;16;0.04709141;-0.9647011;-0.2271468;-0.1246537;-1;1;-1;-1773;628;3710;2;0.1745152;-0.6371191;-0.6724616;-0.333795;0;0;1;3059;2800;-145;8;0.1135734;-0.9827502;0.1440443;0.0235457;-1;0;0;1210;954;3814;1.025676;1.880102;2.099092;1.025463;1.860686;1.55389;1.025254;1.841598;1.074731;1.020926;1.764557;0.3449989;0.7585877;1.70696;0.02467287;0.4221685;1.803519;0.1574791;0.1008601;0.9404371;0.05658179;0;0;0;1.278113;1.677774;0.02466959;1.570927;1.738987;0.1574739;1.911103;0.8839641;0.4429407;1.934499;-0.04989648;0.6015121;0.7138548;1.877493;2.144838;0.6093115;0.9807951;3.296299;0.4382583;0.782244;4.616771;0.7138548;1.877493;2.144838;0.6093115;0.9807951;3.296299;0.4382583;0.782244;4.616771
1096401.0357;NotLabelled;NONE;16384;0.7312416;-0.6523545;0.06094183;-0.1897507;0;-2;-2;-1393;3809;316;65536;0.6604137;-0.6426592;-0.2299169;-0.3130194;-1;3;-2;364;4077;75;8192;0.5609418;-0.6652152;-0.4695291;-0.1495845;-1;-2;2;1842;3587;305;32768;0.6288089;-0.7471102;-0.166205;-0.1371191;-1;-3;3;-449;3999;591;256;-0.04570637;-0.03185596;-0.9972011;0.04986149;1;-1;0;257;-398;3985;128;0.08033241;-0.02077562;0.9905265;0.1094183;0;0;0;115;919;-3960;4;0.3033241;-0.7475338;0.5747922;0.1371191;0;1;-1;-3191;2528;-574;16;0.04709141;-0.9647011;-0.2271468;-0.1246537;-1;-2;0;-1733;596;3594;2;0.1745152;-0.6371191;-0.6724616;-0.333795;0;-1;0;3041;2768;-215;8;0.1135734;-0.9827502;0.1440443;0.0235457;0;0;0;1210;924;3838;1.027652;1.877938;2.098482;1.027439;1.858522;1.553281;1.027229;1.839434;1.074121;1.022682;1.762304;0.3444005;0.7601832;1.705387;0.0240846;0.4240331;1.802894;0.1568798;0.1008686;0.9404376;0.05656651;0;0;0;1.279625;1.674766;0.02408123;1.572608;1.735187;0.1568749;1.912873;0.8801644;0.4422359;1.934342;-0.05383325;0.6002705;0.71583;1.875329;2.144229;0.6142416;0.981159;3.297917;0.4433917;0.7826078;4.618415;0.71583;1.875329;2.144229;0.6142416;0.981159;3.297917;0.4433917;0.7826078;4.618415
1096421.4891;NotLabelled;NONE;16384;0.7308808;-0.6523545;0.06094183;-0.1911357;0;2;-2;-1421;3809;258;65536;0.6604137;-0.6426592;-0.2299169;-0.3130194;-1;3;-2;472;4069;157;8192;0.5609418;-0.6652152;-0.4695291;-0.1495845;-1;-1;3;2010;3543;373;32768;0.6288089;-0.7471102;-0.166205;-0.1371191;0;-2;4;-241;4021;523;256;-0.04570637;-0.03185596;-0.9972011;0.04986149;1;-1;0;301;-360;3993;128;0.08171745;-0.02077562;0.9904132;0.1094183;0;1;0;113;933;-4060;4;0.3033241;-0.7475338;0.5747922;0.1371191;0;0;0;-3201;2548;-564;16;0.04570637;-0.9647677;-0.2271468;-0.1246537;-2;0;-1;-1733;590;3558;2;0.1745152;-0.6371191;-0.6724616;-0.333795;0;1;0;3117;2724;-133;8;0.1121884;-0.9829093;0.1440443;0.0235457;-1;-1;1;1116;944;3856;1.025837;1.875556;2.097736;1.025624;1.856139;1.552535;1.025414;1.837051;1.073375;1.020977;1.761942;0.3434426;0.7585234;1.705947;0.02292717;0.4223644;1.80313;0.1559368;0.09923177;0.9406737;0.05552126;0;0;0;1.277961;1.675258;0.02292451;1.570931;1.735272;0.1559324;1.912862;0.8811666;0.4420462;1.932169;-0.0522753;0.6036051;0.7140152;1.872946;2.143483;0.612332;0.9787761;3.297163;0.4413734;0.7802254;4.617647;0.7140152;1.872946;2.143483;0.612332;0.9787761;3.297163;0.4413734;0.7802254;4.617647
1096441.5535;NotLabelled;NONE;16384;0.730764;-0.6523545;0.06232687;-0.1911357;0;-1;-4;-1465;3775;442;65536;0.6599298;-0.6426592;-0.2313019;-0.3130194;-2;5;-4;540;4051;83;8192;0.5609418;-0.6655251;-0.4695291;-0.1481994;-1;0;3;1706;3683;341;32768;0.6301939;-0.7459423;-0.166205;-0.1371191;-1;-3;2;-177;4027;573;256;-0.04570637;-0.03185596;-0.9972011;0.04986149;1;0;0;263;-418;4045;128;0.08033241;-0.02077562;0.9903725;0.1108033;0;0;0;137;925;-4132;4;0.3033241;-0.7464668;0.5761772;0.1371191;0;0;0;-3169;2490;-640;16;0.04570637;-0.9647677;-0.2271468;-0.1246537;-2;0;-1;-1743;670;3654;2;0.1745152;-0.6371191;-0.6724616;-0.333795;0;1;0;3087;2762;-113;8;0.1121884;-0.9829093;0.1440443;0.0235457;-2;0;0;1074;946;3918;1.027472;1.874929;2.097556;1.027259;1.85553;1.552354;1.02705;1.836457;1.073194;1.022613;1.761349;0.3432615;0.7601588;1.705353;0.02274589;0.4239998;1.802537;0.1557561;0.09923175;0.9406739;0.05552149;0;0;0;1.279597;1.674664;0.02274334;1.572566;1.734679;0.1557514;1.914522;0.8805729;0.4418358;1.933828;-0.05286801;0.6033944;0.7156507;1.872319;2.143302;0.6139674;0.9781479;3.296982;0.4421764;0.7831854;4.617892;0.7156507;1.872319;2.143302;0.6139674;0.9781479;3.296982;0.4421764;0.7831854;4.617892
1096462.6234;NotLabelled;NONE;16384;0.731635;-0.6509695;0.06232687;-0.1925208;-1;2;-4;-1363;3875;240;65536;0.6580901;-0.6440443;-0.232687;-0.3130194;-1;4;-4;424;4115;115;8192;0.5609418;-0.6645458;-0.4709141;-0.1481994;-2;-1;2;1584;3735;237;32768;0.6301939;-0.7462496;-0.1648199;-0.1371191;-1;-2;0;-187;4045;613;256;-0.04570637;-0.03185596;-0.9972011;0.04986149;0;0;0;319;-474;4065;128;0.08033241;-0.02077562;0.9903725;0.1108033;0;-2;1;21;937;-4096;4;0.3033241;-0.7464668;0.5761772;0.1371191;1;-1;0;-3243;2556;-576;16;0.04570637;-0.9647677;-0.2271468;-0.1246537;-1;1;0;-1757;562;3704;2;0.1731302;-0.6371191;-0.6728195;-0.333795;0;-1;1;3005;2782;-217;8;0.1121884;-0.9829093;0.1440443;0.0235457;-1;-1;0;1158;984;3840;1.027484;1.871987;2.09391;1.027287;1.854085;1.548656;1.027092;1.836329;1.069445;1.022752;1.76122;0.3395125;0.7603397;1.705225;0.01896238;0.4241631;1.802408;0.1519282;0.09759563;0.9409059;0.05447308;0;0;0;1.279778;1.674535;0.01902786;1.57273;1.73455;0.152075;1.916378;0.8821548;0.4412177;1.936087;-0.0518527;0.5994195;0.7156607;1.869251;2.139639;0.6121753;0.9754714;3.293462;0.4402099;0.7805096;4.61435;0.7156607;1.869251;2.139639;0.6121753;0.9754714;3.293462;0.4402099;0.7805096;4.61435
1096483.6342;NotLabelled;NONE;16384;0.7312692;-0.6509695;0.06232687;-0.1939058;0;4;-4;-1593;3805;174;65536;0.6580901;-0.6440443;-0.232687;-0.3130194;0;4;-4;384;4071;83;8192;0.5609418;-0.6655251;-0.4695291;-0.1481994;-1;-3;0;1756;3751;87;32768;0.6288089;-0.747417;-0.1648199;-0.1371191;-1;0;-1;-279;4009;719;256;-0.04570637;-0.033241;-0.9971558;0.04986149;0;0;0;331;-422;4073;128;0.08033241;-0.02077562;0.9905265;0.1094183;0;0;0;-5;937;-4072;4;0.3033241;-0.7464668;0.5761772;0.1371191;0;0;0;-3225;2478;-642;16;0.04432133;-0.9653352;-0.2257618;-0.1232687;-2;-2;-1;-1787;564;3618;2;0.1731302;-0.6371191;-0.6728195;-0.333795;0;-1;0;3019;2788;-97;8;0.1121884;-0.9829093;0.1440443;0.0235457;-1;-1;0;1188;1010;3770;1.028695;1.871041;2.09475;1.028499;1.85314;1.549497;1.028304;1.835383;1.070286;1.023866;1.760274;0.3403536;0.761412;1.704279;0.01983796;0.4252531;1.801462;0.1528484;0.09707022;0.9412146;0.04989551;0;0;0;1.28085;1.67359;0.01983467;1.57382;1.733605;0.1528428;1.919297;0.881073;0.4393917;1.937302;-0.05294204;0.5977553;0.7168722;1.868305;2.140479;0.6135397;0.9745259;3.294316;0.4417494;0.7795637;4.615227;0.7168722;1.868305;2.140479;0.6135397;0.9745259;3.294316;0.4417494;0.7795637;4.615227
1096503.7086;NotLabelled;NONE;16384;0.7309005;-0.6509695;0.06232687;-0.1952908;0;0;-5;-1783;3667;402;65536;0.6575987;-0.6440443;-0.234072;-0.3130194;0;2;-7;628;3997;141;8192;0.5595568;-0.6666901;-0.4695291;-0.1481994;0;1;2;2034;3581;261;32768;0.6288089;-0.7471616;-0.1648199;-0.1385041;0;1;1;-357;4089;635;256;-0.04709141;-0.033241;-0.9970914;0.04986149;0;1;0;323;-348;4027;128;0.08033241;-0.02077562;0.9905265;0.1094183;0;1;0;33;879;-4074;4;0.3033241;-0.7464668;0.5761772;0.1371191;0;0;0;-3213;2516;-594;16;0.04432133;-0.9653352;-0.2257618;-0.1232687;-2;0;-1;-1791;596;3584;2;0.1731302;-0.6371191;-0.6728195;-0.333795;0;0;0;3119;2728;-179;8;0.1121884;-0.9829093;0.1440443;0.0235457;-2;-1;0;1164;978;3818;1.03065;1.871457;2.096575;1.030437;1.852041;1.551374;1.030227;1.832952;1.072214;1.025473;1.757754;0.3422932;0.7628167;1.70244;0.02182484;0.4269476;1.80057;0.1548718;0.09708502;0.9412138;0.04986668;0;0;0;1.282168;1.670315;0.02174819;1.575322;1.729538;0.1547042;1.919196;0.8755593;0.4388629;1.936827;-0.05788827;0.60058;0.7188286;1.868848;2.142322;0.6158329;0.9750683;3.296188;0.4469338;0.7849429;4.618176;0.7188286;1.868848;2.142322;0.6158329;0.9750683;3.296188;0.4469338;0.7849429;4.618176
1096525.4995;NotLabelled;NONE;16384;0.7307811;-0.6509695;0.06371191;-0.1952908;-1;-4;-4;-1631;3859;430;65536;0.6582562;-0.6440443;-0.234072;-0.3116343;-2;2;-7;472;4047;39;8192;0.5595568;-0.6657124;-0.4709141;-0.1481994;0;0;3;1938;3607;297;32768;0.6288089;-0.7471616;-0.1648199;-0.1385041;0;0;3;-393;4005;537;256;-0.04709141;-0.033241;-0.9970914;0.04986149;0;0;0;285;-398;3979;128;0.08171745;-0.02077562;0.9904132;0.1094183;0;0;1;145;911;-4038;4;0.3033241;-0.7464668;0.5761772;0.1371191;1;0;0;-3267;2528;-552;16;0.04432133;-0.9650102;-0.2271468;-0.1232687;-1;2;0;-1809;566;3606;2;0.1731302;-0.6371191;-0.6728195;-0.333795;-1;0;0;3133;2672;-281;8;0.1121884;-0.9829093;0.1440443;0.0235457;-1;0;0;1164;854;3852;1.030892;1.871526;2.091998;1.03068;1.85211;1.546797;1.03047;1.833022;1.067637;1.025826;1.75776;0.3377215;0.763221;1.702381;0.01722232;0.4273199;1.800475;0.1502152;0.09559423;0.9414361;0.04853861;0;0;0;1.282577;1.670331;0.01721922;1.575705;1.729607;0.1502099;1.918967;0.8769546;0.439052;1.935068;-0.05662048;0.600187;0.719071;1.868917;2.137745;0.6191126;0.9751379;3.291879;0.4536936;0.7850122;4.614307;0.719071;1.868917;2.137745;0.6191126;0.9751379;3.291879;0.4536936;0.7850122;4.614307
1096545.4856;NotLabelled;NONE;16384;0.7318906;-0.6495845;0.06509695;-0.1952908;-2;-3;-6;-1459;3877;374;65536;0.6564031;-0.6454294;-0.2354571;-0.3116343;-2;5;-8;290;4095;111;8192;0.5595568;-0.6657124;-0.4709141;-0.1481994;0;1;5;1838;3537;335;32768;0.6288089;-0.7471616;-0.1648199;-0.1385041;0;0;2;-237;3955;567;256;-0.04709141;-0.033241;-0.9970914;0.04986149;0;-2;0;251;-358;3941;128;0.08171745;-0.02077562;0.9904132;0.1094183;0;-2;0;119;943;-4058;4;0.301939;-0.7470281;0.5761772;0.1371191;2;0;0;-3219;2498;-556;16;0.04432133;-0.9651861;-0.2271468;-0.1218837;0;1;-1;-1725;628;3622;2;0.1745152;-0.6371191;-0.6731473;-0.33241;-1;2;0;3053;2734;-177;8;0.1108033;-0.9830664;0.1440443;0.0235457;-1;0;0;1144;892;3888;1.030737;1.87104;2.091663;1.030524;1.851641;1.546461;1.030315;1.832568;1.067301;1.025672;1.757307;0.3373859;0.7630681;1.701928;0.01688656;0.4271667;1.800022;0.1498783;0.09362137;0.9416251;0.04873162;0;0;0;1.282424;1.669877;0.01688397;1.575551;1.729154;0.1498753;1.92057;0.8771605;0.4385693;1.93667;-0.05641496;0.5997043;0.7189158;1.868429;2.13741;0.6189551;0.9746499;3.291543;0.4538054;0.7841039;4.613945;0.7189158;1.868429;2.13741;0.6189551;0.9746499;3.291543;0.4538054;0.7841039;4.613945
1096566.4972;NotLabelled;NONE;16384;0.7318906;-0.6495845;0.06509695;-0.1952908;0;1;-2;-1391;3879;166;65536;0.6554028;-0.6454294;-0.2382271;-0.3116343;-1;2;-4;254;4165;69;8192;0.5581717;-0.6662007;-0.4722992;-0.1468144;-1;0;5;1716;3649;345;32768;0.6288089;-0.7471616;-0.1648199;-0.1385041;-2;-1;1;-283;4001;655;256;-0.04709141;-0.033241;-0.9970914;0.04986149;0;-2;0;367;-390;4007;128;0.08171745;-0.02077562;0.9904132;0.1094183;1;0;0;29;879;-4052;4;0.301939;-0.7470281;0.5761772;0.1371191;1;0;1;-3207;2518;-518;16;0.04432133;-0.9651861;-0.2271468;-0.1218837;-1;-1;-2;-1673;472;3646;2;0.1745152;-0.6371191;-0.6731473;-0.33241;-1;0;1;3057;2772;-203;8;0.1108033;-0.9830664;0.1440443;0.0235457;0;0;-1;1154;914;3870;1.032;1.870276;2.089948;1.031787;1.850877;1.544746;1.031578;1.831805;1.065586;1.026934;1.756543;0.3356702;0.7643288;1.701164;0.01517084;0.4284276;1.799258;0.1481635;0.09308887;0.9419039;0.04414503;0;0;0;1.283685;1.669114;0.01516747;1.576813;1.72839;0.1481582;1.921833;0.876388;0.4368241;1.937934;-0.05718803;0.5979592;0.7201787;1.867666;2.135694;0.6230079;0.976416;3.292021;0.4614741;0.7866958;4.614987;0.7201787;1.867666;2.135694;0.6230079;0.976416;3.292021;0.4614741;0.7866958;4.614987
1096587.6262;NotLabelled;NONE;16384;0.7318906;-0.6495845;0.06509695;-0.1952908;0;0;0;-1449;3845;212;65536;0.6554028;-0.6454294;-0.2382271;-0.3116343;0;1;-4;352;4011;189;8192;0.5581717;-0.6662007;-0.4722992;-0.1468144;-1;1;5;1742;3685;193;32768;0.6288089;-0.7471616;-0.1648199;-0.1385041;-3;1;0;-421;4037;631;256;-0.04709141;-0.03462604;-0.9970443;0.04986149;1;-2;0;381;-478;4055;128;0.08171745;-0.02077562;0.9904132;0.1094183;0;0;0;-39;843;-3980;4;0.301939;-0.7470281;0.5761772;0.1371191;1;0;1;-3285;2526;-548;16;0.04293629;-0.9655737;-0.2257618;-0.1218837;-1;-2;-2;-1703;498;3632;2;0.1745152;-0.6371191;-0.6731473;-0.33241;-1;0;0;3075;2740;-185;8;0.1108033;-0.9830664;0.1440443;0.0235457;-1;-1;-1;1156;976;3836;1.028778;1.870688;2.087765;1.028565;1.851289;1.542562;1.028356;1.832217;1.063402;1.023712;1.756955;0.333487;0.7611069;1.701576;0.01298758;0.4252057;1.79967;0.1459802;0.08986693;0.9423159;0.04196178;0;0;0;1.280463;1.669525;0.01298425;1.573591;1.728802;0.1459749;1.920837;0.8789231;0.4382085;1.936938;-0.05465317;0.5993434;0.7169569;1.868078;2.133511;0.619786;0.976828;3.289837;0.4582521;0.7871078;4.612803;0.7169569;1.868078;2.133511;0.619786;0.976828;3.289837;0.4582521;0.7871078;4.612803
1096608.4965;NotLabelled;NONE;16384;0.7318906;-0.6495845;0.06509695;-0.1952908;0;0;0;-1825;3747;278;65536;0.655555;-0.6454294;-0.2396122;-0.3102493;2;-4;-6;560;4061;173;8192;0.5581717;-0.6642282;-0.4750692;-0.1468144;0;5;7;1852;3529;185;32768;0.6288089;-0.7465965;-0.166205;-0.1398892;0;10;3;-367;4015;667;256;-0.04709141;-0.03462604;-0.9970443;0.04986149;1;-2;0;383;-456;4067;128;0.08171745;-0.02077562;0.9904132;0.1094183;0;0;0;-5;855;-4146;4;0.301939;-0.7467725;0.5761772;0.1385041;3;-2;0;-3137;2548;-564;16;0.04293629;-0.9657475;-0.2257618;-0.1204986;0;1;-2;-1727;574;3654;2;0.1745152;-0.6371191;-0.6731473;-0.33241;-2;0;0;3013;2778;-261;8;0.1108033;-0.9830664;0.1440443;0.0235457;-2;0;-2;1110;908;3820;1.028896;1.869153;2.087691;1.028683;1.849755;1.542489;1.028474;1.830682;1.063329;1.023615;1.755329;0.3334242;0.7608554;1.700629;0.01293492;0.4252279;1.799671;0.1459165;0.08987343;0.9423163;0.0419482;0;0;0;1.280121;1.667144;0.01293227;1.573412;1.725628;0.1459117;1.920703;0.8757491;0.4380925;1.936828;-0.05782616;0.5992252;0.7170745;1.866543;2.133437;0.6200783;0.9752934;3.289778;0.4576472;0.7895823;4.613204;0.7170745;1.866543;2.133437;0.6200783;0.9752934;3.289778;0.4576472;0.7895823;4.613204
1096629.0781;NotLabelled;NONE;16384;0.7317661;-0.6495845;0.06648199;-0.1952908;0;-8;0;-1803;3745;188;65536;0.6562086;-0.6454294;-0.2396122;-0.3088643;8;-11;-7;342;4065;183;8192;0.5567867;-0.6653896;-0.4750692;-0.1468144;0;6;9;1936;3617;157;32768;0.6288089;-0.7460259;-0.16759;-0.1412742;1;11;2;-223;4003;705;256;-0.04709141;-0.03601108;-0.9970635;0.04847645;0;-4;0;291;-382;3949;128;0.08171745;-0.02077562;0.9904132;0.1094183;2;0;0;35;923;-4094;4;0.301939;-0.7467725;0.5761772;0.1385041;3;-1;0;-3151;2570;-602;16;0.04293629;-0.9655945;-0.2271468;-0.1191136;0;1;-3;-1805;548;3694;2;0.1745152;-0.6371191;-0.6731473;-0.33241;-3;0;0;3007;2730;-221;8;0.1108033;-0.9830322;0.1440443;0.02493075;-2;2;-2;1116;944;3872;1.025307;1.869529;2.086783;1.025094;1.85013;1.541581;1.024885;1.831057;1.062421;1.020026;1.755704;0.3325165;0.7572662;1.701004;0.01202716;0.4216386;1.800046;0.1450087;0.08628416;0.9426914;0.04104043;0;0;0;1.276532;1.667519;0.01202446;1.569823;1.726003;0.1450039;1.920621;0.8774446;0.4368325;1.936514;-0.05625784;0.5972533;0.7134852;1.866918;2.13253;0.6192904;0.973559;3.287473;0.4604748;0.7886692;4.611452;0.7134852;1.866918;2.13253;0.6192904;0.973559;3.287473;0.4604748;0.7886692;4.611452
1096648.8798;NotLabelled;NONE;16384;0.731639;-0.6495845;0.06786703;-0.1952908;0;-5;0;-1421;3789;212;65536;0.6575053;-0.6454294;-0.2396122;-0.3060942;9;-11;-7;252;4061;51;8192;0.5554016;-0.6648676;-0.4778393;-0.1454294;0;9;6;1836;3573;187;32768;0.6288089;-0.7457622;-0.16759;-0.1426593;2;10;-1;-187;3991;637;256;-0.04709141;-0.03739612;-0.9969442;0.04986149;-1;-4;0;319;-422;4019;128;0.08171745;-0.02077562;0.9905652;0.1080332;2;0;0;53;905;-4090;4;0.301939;-0.7467725;0.5761772;0.1385041;4;0;0;-3223;2490;-596;16;0.04293629;-0.9655945;-0.2271468;-0.1191136;0;0;-3;-1707;516;3706;2;0.1759003;-0.6371191;-0.6734692;-0.3310249;-3;0;0;3049;2822;-175;8;0.1094183;-0.9831873;0.1440443;0.02493075;-2;1;-2;1276;978;3796;1.025086;1.864892;2.086593;1.024873;1.845493;1.541391;1.024663;1.826421;1.062231;1.019715;1.752996;0.3321307;0.7568543;1.699901;0.01145475;0.4214919;1.799566;0.1446388;0.08430521;0.9428626;0.04122917;0;0;0;1.27602;1.664909;0.01145169;1.569457;1.722194;0.1446338;1.918988;0.8741752;0.439535;1.934663;-0.05965459;0.5992364;0.7132642;1.862282;2.13234;0.6191379;0.9689227;3.287289;0.4642804;0.7844487;4.611795;0.7132642;1.862282;2.13234;0.6191379;0.9689227;3.287289;0.4642804;0.7844487;4.611795
1096669.4815;NotLabelled;NONE;16384;0.7321343;-0.6495845;0.06648199;-0.1939058;2;-2;3;-1455;3783;388;65536;0.6587878;-0.6454294;-0.2396122;-0.3033241;5;-7;-5;312;4057;1;8192;0.5554016;-0.6645631;-0.4778393;-0.1468144;0;7;5;1628;3707;255;32768;0.6288089;-0.7451833;-0.1689751;-0.1440443;2;7;-3;-37;4115;547;256;-0.04709141;-0.03739612;-0.9969442;0.04986149;0;-3;0;467;-382;4073;128;0.08033241;-0.02077562;0.9906785;0.1080332;1;0;0;-25;859;-3990;4;0.300554;-0.747331;0.5761772;0.1385041;4;0;0;-3271;2446;-568;16;0.04293629;-0.9655945;-0.2271468;-0.1191136;0;0;-3;-1729;598;3602;2;0.1759003;-0.6371191;-0.6734692;-0.3310249;-3;0;0;3075;2750;-169;8;0.1094183;-0.9831873;0.1440443;0.02493075;-2;-2;-3;1256;888;3802;1.023477;1.868209;2.08814;1.023248;1.847297;1.542994;1.023024;1.826893;1.063889;1.017613;1.751355;0.3340072;0.7544959;1.698017;0.01358257;0.4194458;1.798951;0.1465966;0.08036467;0.9431911;0.04158387;0;0;0;1.273568;1.66166;0.01349434;1.567203;1.718561;0.1464026;1.920909;0.8725414;0.4420676;1.934698;-0.06141376;0.6012059;0.7116573;1.865726;2.133903;0.6180054;0.972367;3.288891;0.4636921;0.7878935;4.613461;0.7116573;1.865726;2.133903;0.6180054;0.972367;3.288891;0.4636921;0.7878935;4.613461
1096689.4892;NotLabelled;NONE;16384;0.7309031;-0.6509695;0.06648199;-0.1939058;1;-3;4;-1601;3775;566;65536;0.6594238;-0.6454294;-0.2396122;-0.301939;2;-5;-7;380;4017;-15;8192;0.5554016;-0.663565;-0.4792244;-0.1468144;-1;2;5;1716;3725;503;32768;0.6288089;-0.7448679;-0.1703601;-0.1440443;0;1;-2;-73;4129;487;256;-0.04709141;-0.03878116;-0.9968913;0.04986149;1;-4;0;417;-410;4091;128;0.08033241;-0.01939058;0.9907066;0.1080332;0;0;1;37;875;-4106;4;0.300554;-0.7470731;0.5761772;0.1398892;3;0;0;-3311;2464;-566;16;0.04293629;-0.9657643;-0.2271468;-0.1177285;0;1;-3;-1767;478;3616;2;0.1759003;-0.6371191;-0.6734692;-0.3310249;-3;0;0;3089;2804;-185;8;0.1094183;-0.9831513;0.1440443;0.02631579;-2;0;-3;1260;924;3864;1.01588;1.870108;2.087158;1.015651;1.849178;1.542012;1.015427;1.828759;1.062908;1.010135;1.753221;0.3330252;0.7470694;1.699882;0.01255737;0.4119975;1.800817;0.1455173;0.07640611;0.9435017;0.04198507;0;0;0;1.266142;1.663526;0.01255354;1.559755;1.720427;0.1455101;1.911538;0.8742707;0.4430721;1.925079;-0.05981278;0.6014787;0.7040601;1.867626;2.132921;0.6130086;0.9768028;3.290073;0.45848;0.7923293;4.614618;0.7040601;1.867626;2.132921;0.6130086;0.9768028;3.290073;0.45848;0.7923293;4.614618
1096710.5157;NotLabelled;NONE;16384;0.7323727;-0.6495845;0.06786703;-0.1925208;0;-4;3;-1551;3903;544;65536;0.6595518;-0.6454294;-0.2409972;-0.300554;1;0;-7;348;4081;39;8192;0.5554016;-0.662868;-0.4806094;-0.1454294;-3;2;6;1874;3703;417;32768;0.6288089;-0.7448679;-0.1703601;-0.1440443;0;-1;-5;-91;4045;591;256;-0.04709141;-0.0401662;-0.9969048;0.04847645;1;-3;0;387;-388;4053;128;0.08033241;-0.01939058;0.9907066;0.1080332;1;-1;0;-23;921;-4164;4;0.299169;-0.7465593;0.5775623;0.1398892;4;-2;0;-3251;2492;-606;16;0.04155125;-0.9659927;-0.2271468;-0.1163435;0;1;-4;-1703;576;3666;2;0.1759003;-0.6371191;-0.6741483;-0.3296399;-4;1;0;3001;2802;-237;8;0.1094183;-0.9831513;0.1440443;0.02631579;-1;3;-3;1176;946;3848;1.01403;1.86936;2.083893;1.013799;1.848302;1.538752;1.013574;1.827769;1.059652;1.008067;1.75214;0.3297808;0.7448521;1.699481;0.009323269;0.4100617;1.801361;0.1422711;0.07443931;0.943651;0.04216878;0;0;0;1.263822;1.661689;0.009320289;1.557593;1.717799;0.1422659;1.911166;0.8723195;0.4396314;1.926459;-0.06176615;0.5978662;0.7022102;1.866889;2.129657;0.6141331;0.9739573;3.285414;0.4634216;0.7903113;4.610513;0.7022102;1.866889;2.129657;0.6141331;0.9739573;3.285414;0.4634216;0.7903113;4.610513
1096731.5023;NotLabelled;NONE;16384;0.7328624;-0.6495845;0.06648199;-0.1911357;0;3;2;-1351;3717;228;65536;0.6601812;-0.6454294;-0.2409972;-0.299169;0;2;-7;338;4029;79;8192;0.5554016;-0.662868;-0.4806094;-0.1454294;-3;3;5;1690;3677;149;32768;0.6288089;-0.7451344;-0.1703601;-0.1426593;1;-6;-6;-79;4061;639;256;-0.04709141;-0.04155125;-0.996848;0.04847645;-1;-4;0;539;-406;4071;128;0.08171745;-0.01939058;0.9905933;0.1080332;2;2;0;-33;959;-4048;4;0.299169;-0.7462984;0.5775623;0.1412742;4;-1;0;-3273;2476;-544;16;0.04155125;-0.9659927;-0.2271468;-0.1163435;0;1;-3;-1665;486;3656;2;0.1772853;-0.6371191;-0.6737853;-0.3296399;-4;0;0;3009;2750;-205;8;0.1094183;-0.9831132;0.1440443;0.02770083;-1;5;-3;1252;914;3740;1.010532;1.865094;2.086106;1.010301;1.844035;1.540966;1.010076;1.823503;1.061866;1.004495;1.749803;0.331798;0.7411926;1.698748;0.01115304;0.4066728;1.80125;0.1443034;0.07085103;0.9439681;0.04125109;0;0;0;1.26005;1.659452;0.01115042;1.553956;1.71436;0.1442989;1.911071;0.8705106;0.4420627;1.926372;-0.06357527;0.6002957;0.6987123;1.862623;2.131871;0.6118383;0.9726017;3.289961;0.4639785;0.7933786;4.615986;0.6987123;1.862623;2.131871;0.6118383;0.9726017;3.289961;0.4639785;0.7933786;4.615986
1096752.6121;NotLabelled;NONE;16384;0.7316324;-0.6509695;0.06648199;-0.1911357;1;5;6;-1537;3783;154;65536;0.658316;-0.6468144;-0.2423823;-0.299169;1;1;-6;266;4111;93;8192;0.5554016;-0.662868;-0.4806094;-0.1454294;-1;-1;5;1858;3547;171;32768;0.6288089;-0.7453982;-0.1703601;-0.1412742;3;-4;-4;-275;4061;725;256;-0.04847645;-0.04155125;-0.9967816;0.04847645;0;-5;0;485;-416;4111;128;0.08171745;-0.01939058;0.9905933;0.1080332;0;3;0;11;869;-4118;4;0.299169;-0.7462984;0.5775623;0.1412742;5;0;0;-3251;2524;-536;16;0.04155125;-0.9661586;-0.2271468;-0.1149584;1;2;-3;-1731;556;3616;2;0.1772853;-0.6371191;-0.6737853;-0.3296399;-4;-1;-1;3197;2776;-245;8;0.1080332;-0.9834682;0.1426593;0.02770083;-1;0;-3;1286;896;3794;1.005225;1.864926;2.08686;1.004994;1.843883;1.541719;1.004769;1.823365;1.062618;0.9989768;1.749573;0.3325614;0.7355312;1.6992;0.01192619;0.4012973;1.802646;0.145065;0.06888516;0.9441056;0.04143418;0;0;0;1.254279;1.658469;0.01192436;1.548336;1.712583;0.1450621;1.905524;0.8687427;0.4427609;1.922797;-0.06521356;0.6015559;0.693405;1.862454;2.132624;0.6094959;0.97032;3.289306;0.4618342;0.7910967;4.615354;0.693405;1.862454;2.132624;0.6094959;0.97032;3.289306;0.4618342;0.7910967;4.615354
1096774.4834;NotLabelled;NONE;16384;0.7321174;-0.6509695;0.06509695;-0.1897507;0;-9;9;-1519;3835;250;65536;0.6595678;-0.6468144;-0.2423823;-0.2963989;1;-3;-6;222;4115;75;8192;0.5554016;-0.6621643;-0.4819945;-0.1440443;-1;3;7;2054;3547;283;32768;0.6301939;-0.7442276;-0.1703601;-0.1412742;6;-12;-4;99;4053;513;256;-0.04847645;-0.04293629;-0.9967229;0.04847645;0;-5;0;441;-556;4149;128;0.08171745;-0.01939058;0.9907434;0.1066482;0;0;0;99;817;-4232;4;0.2977839;-0.7479212;0.5761772;0.1412742;4;2;1;-3283;2532;-556;16;0.04155125;-0.9659957;-0.2285319;-0.1135734;1;6;-3;-1787;542;3756;2;0.1772853;-0.6371191;-0.6737853;-0.3296399;-3;2;-1;3135;2792;-223;8;0.1080332;-0.9832264;0.1440443;0.02908587;0;-2;-3;1228;902;3874;1.005333;1.865733;2.076904;1.005102;1.84469;1.531763;1.004876;1.824172;1.052663;0.9990866;1.750301;0.3226135;0.7356446;1.699856;0.00198698;0.4013976;1.803269;0.1351176;0.06843936;0.9443365;0.03661549;0;0;0;1.254398;1.659198;0.001983792;1.548449;1.713367;0.1351125;1.907241;0.8695182;0.4308521;1.926906;-0.06430495;0.5901498;0.6935127;1.863261;2.122669;0.6128175;0.9711274;3.27958;0.4724606;0.7927326;4.606533;0.6935127;1.863261;2.122669;0.6128175;0.9711274;3.27958;0.4724606;0.7927326;4.606533
1096794.6523;NotLabelled;NONE;16384;0.731597;-0.6523545;0.06509695;-0.1869806;0;-6;11;-1263;3837;394;65536;0.6590571;-0.6468144;-0.2437673;-0.2963989;0;0;-5;244;4089;89;8192;0.5540166;-0.662315;-0.4833795;-0.1440443;-1;5;6;2050;3621;213;32768;0.6315789;-0.7442031;-0.16759;-0.1385041;4;-17;-5;81;4061;413;256;-0.04709141;-0.04432133;-0.9967287;0.04847645;0;-4;0;405;-490;4171;128;0.08171745;-0.01939058;0.9907434;0.1066482;0;0;0;31;847;-4308;4;0.2977839;-0.7476583;0.5761772;0.1426593;4;2;0;-3129;2638;-604;16;0.04155125;-0.965667;-0.2299169;-0.1135734;2;8;-3;-1745;502;3752;2;0.1786704;-0.6357341;-0.6747271;-0.3296399;-4;2;0;3067;2918;-165;8;0.1080332;-0.9836282;0.1412742;0.02908587;0;9;-4;986;972;3958;0.9980272;1.868273;2.080818;0.9977795;1.845716;1.535737;0.9975398;1.823867;1.056696;0.9913943;1.749902;0.326659;0.7277474;1.700137;0.006094396;0.3938153;1.804494;0.139279;0.06450214;0.9445989;0.03699473;0;0;0;1.246386;1.658044;0.005990475;1.540614;1.711422;0.1390502;1.902286;0.8683944;0.433625;1.922428;-0.06598711;0.589551;0.6862086;1.865928;2.126598;0.6103569;0.9759772;3.285517;0.474335;0.7980237;4.612981;0.6862086;1.865928;2.126598;0.6103569;0.9759772;3.285517;0.474335;0.7980237;4.612981
1096814.727;NotLabelled;NONE;16384;0.7320715;-0.6523545;0.06371191;-0.1855956;1;0;12;-1215;3865;356;65536;0.6591648;-0.6468144;-0.2451524;-0.2950138;0;3;-3;210;4053;-11;8192;0.5540166;-0.6613019;-0.4847645;-0.1440443;-3;4;1;1718;3799;421;32768;0.632964;-0.7449605;-0.1634349;-0.132964;5;-30;-12;-163;4157;529;256;-0.04709141;-0.04432133;-0.9967287;0.04847645;-1;-2;1;331;-486;4103;128;0.08033241;-0.01939058;0.9908566;0.1066482;0;3;0;41;931;-4166;4;0.2977839;-0.7473927;0.5761772;0.1440443;5;1;1;-3195;2536;-628;16;0.04293629;-0.9654375;-0.2313019;-0.1121884;2;8;-2;-1731;516;3666;2;0.1786704;-0.6357341;-0.675402;-0.3282548;-5;3;-1;3193;2836;-97;8;0.1094183;-0.9836311;0.1398892;0.03047091;0;13;-4;994;902;3902;0.992628;1.868569;2.075594;0.9923804;1.846013;1.530514;0.9921406;1.824164;1.051472;0.9859208;1.750189;0.3214369;0.7221922;1.701179;0.0008238703;0.388539;1.806511;0.1339397;0.0627837;0.9447509;0.03605278;0;0;0;1.240706;1.657579;0.000820756;1.535062;1.710106;0.1339351;1.896234;0.8691272;0.4349082;1.916794;-0.06555653;0.588953;0.6808093;1.866224;2.121375;0.6044843;0.9741677;3.278642;0.4649742;0.7958277;4.60569;0.6808093;1.866224;2.121375;0.6044843;0.9741677;3.278642;0.4649742;0.7958277;4.60569
1096835.5374;NotLabelled;NONE;16384;0.7326569;-0.6523545;0.06094183;-0.1842105;0;-1;13;-1309;3825;350;65536;0.6591648;-0.6468144;-0.2451524;-0.2950138;-1;1;-3;352;4041;25;8192;0.5540166;-0.6613019;-0.4847645;-0.1440443;-4;-5;0;1712;3789;583;32768;0.634349;-0.7450533;-0.1620499;-0.1274238;3;-35;-12;-349;4177;481;256;-0.04847645;-0.04570637;-0.9965997;0.04847645;0;0;0;379;-306;4001;128;0.08171745;-0.02216066;0.9906853;0.1066482;1;10;0;137;995;-4054;4;0.2963989;-0.7490079;0.5747922;0.1440443;4;5;1;-3177;2528;-732;16;0.04293629;-0.9649298;-0.234072;-0.1108033;2;11;-1;-1919;592;3624;2;0.1786704;-0.6357341;-0.675402;-0.3282548;-6;6;-3;3289;2780;-71;8;0.1094183;-0.9840211;0.1371191;0.03047091;0;8;-5;980;922;3846;0.9855952;1.870085;2.075333;0.9853475;1.847512;1.530253;0.9851076;1.825649;1.051213;0.9788876;1.751675;0.3211775;0.7151588;1.702665;0.0005635172;0.3815058;1.807996;0.1336798;0.0591965;0.9450185;0.03511895;0;0;0;1.233673;1.659065;0.0005613267;1.528029;1.711592;0.1336752;1.890945;0.8713009;0.434472;1.914524;-0.0634383;0.5877459;0.6737767;1.867741;2.121114;0.6002415;0.9735804;3.276937;0.4654487;0.7921045;4.60405;0.6737767;1.867741;2.121114;0.6002415;0.9735804;3.276937;0.4654487;0.7921045;4.60405
1096855.5013;NotLabelled;NONE;16384;0.7330037;-0.6523545;0.06094183;-0.1828255;0;-3;10;-1565;3711;406;65536;0.6578029;-0.6481994;-0.2451524;-0.2950138;-2;0;-4;426;4067;31;8192;0.5554016;-0.6614542;-0.4833795;-0.1426593;-4;-14;0;1920;3663;615;32768;0.634349;-0.7463486;-0.1592798;-0.1232687;0;-34;-11;-421;4093;497;256;-0.04986149;-0.04570637;-0.9965314;0.04847645;0;0;0;173;-392;4081;128;0.08171745;-0.02493075;0.9906194;0.1066482;2;11;0;281;961;-4146;4;0.2963989;-0.7498015;0.5734072;0.1454294;6;6;1;-3073;2564;-816;16;0.04293629;-0.9642535;-0.2368421;-0.1108033;3;18;0;-1997;612;3668;2;0.1800554;-0.634349;-0.6763358;-0.3282548;-7;8;-5;3461;2890;-47;8;0.1094183;-0.9839772;0.1371191;0.03185596;0;2;-7;1028;916;4028;0.9796613;1.868699;2.079896;0.9794165;1.846403;1.534805;0.9791792;1.824784;1.055753;0.9748915;1.751001;0.3256844;0.7119699;1.702761;0.004292101;0.3782081;1.808937;0.1364625;0.05919643;0.9449996;0.0355998;0;0;0;1.230366;1.6578;0.005788505;1.52447;1.709522;0.1397724;1.884301;0.8682081;0.4414158;1.914352;-0.06662452;0.5929787;0.6678424;1.866332;2.125674;0.5987351;0.9737948;3.283025;0.4680689;0.7917398;4.610469;0.6678424;1.866332;2.125674;0.5987351;0.9737948;3.283025;0.4680689;0.7917398;4.610469
1096878.9788;NotLabelled;NONE;16384;0.7338029;-0.6523545;0.05955679;-0.1800554;-1;-1;6;-769;3931;190;65536;0.657285;-0.6481994;-0.2465374;-0.2950138;0;1;-1;94;4083;77;8192;0.5567867;-0.6605864;-0.4833795;-0.1412742;-5;-8;-1;2274;3501;613;32768;0.6357341;-0.7466505;-0.1565097;-0.1177285;3;-29;-7;-603;4109;101;256;-0.04986149;-0.04432133;-0.996594;0.04847645;0;0;0;45;-418;3961;128;0.08171745;-0.02631579;0.9907317;0.1052632;3;11;0;463;997;-4114;4;0.2963989;-0.7508587;0.5720221;0.1454294;8;10;0;-3005;2646;-804;16;0.04293629;-0.9635689;-0.2396122;-0.1108033;4;20;1;-1897;660;3636;2;0.1800554;-0.6315789;-0.6789233;-0.3282548;-8;12;-4;3257;2994;25;8;0.1094183;-0.9841235;0.1357341;0.033241;1;1;-8;956;1004;4104;0.977497;1.869973;2.074071;0.9772553;1.847942;1.528969;0.9770206;1.826556;1.049906;0.9726521;1.752667;0.3198487;0.7096972;1.704344;-0.001503289;0.3759371;1.810491;0.1306926;0.06035287;0.9450594;0.03188179;0;0;0;1.2281;1.659456;-6.54608E-05;1.522213;1.711238;0.1338742;1.887473;0.8707863;0.4313646;1.920387;-0.06367898;0.5845985;0.6656779;1.867584;2.119845;0.6043514;0.9726464;3.27578;0.4780445;0.7898737;4.603548;0.6656779;1.867584;2.119845;0.6043514;0.9726464;3.27578;0.4780445;0.7898737;4.603548
1096899.4925;NotLabelled;NONE;16384;0.733128;-0.6537396;0.0567867;-0.1786704;0;4;10;-843;4047;196;65536;0.657285;-0.6481994;-0.2465374;-0.2950138;-2;4;4;42;4133;-37;8192;0.5567867;-0.6608811;-0.4833795;-0.1398892;-7;0;3;2312;3455;425;32768;0.6385041;-0.745505;-0.1537396;-0.1135734;28;-43;-4;-407;4851;-2969;256;-0.04986149;-0.04432133;-0.996594;0.04847645;-1;-4;1;-131;-244;3953;128;0.08171745;-0.02908587;0.9906543;0.1052632;8;15;0;607;1047;-3966;4;0.2950138;-0.7524562;0.5706371;0.1454294;8;15;0;-3035;2664;-766;16;0.04432133;-0.9628131;-0.2423823;-0.1108033;4;20;2;-1879;640;3628;2;0.1800554;-0.6301939;-0.6802091;-0.3282548;-8;14;-3;3151;2984;31;8;0.1094183;-0.9840757;0.1357341;0.03462604;3;1;-10;940;980;4108;0.9740157;1.876122;2.072681;0.9737588;1.85271;1.527637;0.9735109;1.830111;1.04863;0.9671632;1.755965;0.3186134;0.703383;1.706807;-0.001935169;0.3697275;1.812076;0.1312251;0.05883104;0.9452128;0.03012286;0;0;0;1.221909;1.663353;-0.002033517;1.516278;1.715994;0.1310086;1.885291;0.8751507;0.4227051;1.923383;-0.05927157;0.5749928;0.6621978;1.873849;2.118471;0.6058117;0.9791441;3.274836;0.4838137;0.7962677;4.602993;0.6621978;1.873849;2.118471;0.6058117;0.9791441;3.274836;0.4838137;0.7962677;4.602993
1096919.4798;NotLabelled;NONE;16384;0.7335702;-0.6537396;0.05540166;-0.1772853;1;2;10;-1053;3875;426;65536;0.6566616;-0.6481994;-0.2465374;-0.2963989;-3;2;6;284;4103;5;8192;0.5609418;-0.6579414;-0.4833795;-0.1371191;-25;-11;-5;1486;4111;2315;32768;0.6481994;-0.7411396;-0.1454294;-0.09695291;24;-80;-16;271;3997;203;256;-0.04986149;-0.04432133;-0.996594;0.04847645;-2;-4;1;-199;-380;3987;128;0.08171745;-0.03185596;0.9907153;0.1038781;9;7;-3;545;985;-3880;4;0.2936288;-0.7558609;0.566482;0.1468144;6;15;0;-3425;2602;-824;16;0.04570637;-0.9616927;-0.2465374;-0.1108033;4;14;2;-1799;564;3576;2;0.1828255;-0.6260388;-0.6839638;-0.3268698;-9;10;-4;3029;2650;239;8;0.1108033;-0.9841439;0.132964;0.03878116;2;1;-8;1046;832;3804;0.9685056;1.878007;2.068475;0.9682517;1.854863;1.523419;0.9680064;1.8325;1.044402;0.9617932;1.758354;0.3143834;0.6980721;1.709196;-0.006213546;0.364392;1.814465;0.126885;0.05882568;0.9452136;0.03013368;0;0;0;1.216599;1.665742;-0.006216064;1.510943;1.718382;0.1268802;1.881659;0.879257;0.4213498;1.922793;-0.05587065;0.5684283;0.6566875;1.875711;2.114262;0.604509;0.9832599;3.272565;0.4836738;0.7960541;4.600224;0.6566875;1.875711;2.114262;0.604509;0.9832599;3.272565;0.4836738;0.7960541;4.600224
1096939.7305;NotLabelled;NONE;16384;0.7340067;-0.6537396;0.05401662;-0.1759003;-1;2;5;-981;3981;482;65536;0.6560347;-0.6481994;-0.2465374;-0.2977839;-4;6;7;164;4073;-33;8192;0.5650969;-0.6559704;-0.4819945;-0.134349;-35;-23;-11;1138;3605;1641;32768;0.6523545;-0.7400245;-0.1385041;-0.08725762;24;-70;-16;-915;4027;-123;256;-0.05124654;-0.04432133;-0.9964554;0.04986149;-2;-5;2;-115;-410;4143;128;0.08310249;-0.033241;0.9906988;0.1024931;6;5;-4;711;997;-3908;4;0.2936288;-0.7571644;0.5650969;0.1454294;2;10;0;-3449;2654;-890;16;0.04570637;-0.9609783;-0.2493075;-0.1108033;3;13;2;-1839;576;3654;2;0.1828255;-0.6246537;-0.685229;-0.3268698;-8;12;-4;3023;2504;153;8;0.1121884;-0.9837988;0.134349;0.03878116;2;-1;-8;1092;852;3846;0.9672335;1.881137;2.070606;0.9669658;1.85675;1.525604;0.9667084;1.833293;1.046638;0.9603737;1.759148;0.3166214;0.6965992;1.70999;-0.003931373;0.3629412;1.815258;0.1292223;0.06081256;0.9450946;0.02991694;0;0;0;1.215125;1.666536;-0.004020542;1.509491;1.719177;0.1290265;1.887661;0.8798313;0.4132138;1.943856;-0.05726218;0.541606;0.6554166;1.878945;2.116405;0.6138954;0.9860907;3.274828;0.4949866;0.7941926;4.601992;0.6554166;1.878945;2.116405;0.6138954;0.9860907;3.274828;0.4949866;0.7941926;4.601992
1096959.6677;NotLabelled;NONE;16384;0.7341073;-0.6537396;0.05263158;-0.1759003;-1;8;3;-1207;3915;194;65536;0.6554043;-0.6481994;-0.2465374;-0.299169;-4;9;8;90;4101;119;8192;0.5720221;-0.6528279;-0.4792244;-0.1301939;-35;-35;-5;1870;3327;583;32768;0.6551247;-0.7398171;-0.132964;-0.07617728;19;-71;-17;-991;3535;1501;256;-0.04986149;-0.04432133;-0.996594;0.04847645;-3;-7;-5;-105;-80;3855;128;0.08310249;-0.03601108;0.9907444;0.101108;6;1;1;615;1089;-3920;4;0.2936288;-0.7581961;0.5637119;0.1454294;0;4;-2;-3231;2670;-1010;16;0.04570637;-0.960618;-0.2506925;-0.1108033;4;9;3;-1877;668;3696;2;0.1842105;-0.6232687;-0.6861187;-0.3268698;-6;11;-3;2675;2632;235;8;0.1121884;-0.9837433;0.134349;0.0401662;3;0;-6;1034;1040;3856;0.9666584;1.887458;2.068954;0.9663761;1.861731;1.524014;0.9661059;1.837096;1.045107;0.9596083;1.760846;0.3153089;0.6957672;1.710686;-0.005034626;0.3621122;1.816242;0.1279001;0.06288175;0.9449712;0.02952616;0;0;0;1.214306;1.667383;-0.005129576;1.50869;1.720493;0.1276909;1.894049;0.8809086;0.4013221;1.956233;-0.05682623;0.5220487;0.6548427;1.885379;2.114767;0.6155021;0.99429;3.274625;0.5009995;0.8016535;4.60207;0.6548427;1.885379;2.114767;0.6155021;0.99429;3.274625;0.5009995;0.8016535;4.60207
1096981.4844;NotLabelled;NONE;16384;0.7327315;-0.6551247;0.04986149;-0.1772853;0;6;0;-1635;3857;94;65536;0.6555023;-0.6468144;-0.2465374;-0.301939;0;5;5;334;4075;157;8192;0.5761772;-0.6522826;-0.4764543;-0.1246537;-33;-40;-3;2064;3027;175;32768;0.6537396;-0.7422118;-0.1301939;-0.06925207;12;-34;-15;-1049;3185;2243;256;-0.04986149;-0.04570637;-0.9964631;0.04986149;-7;-6;-4;103;-332;3929;128;0.08310249;-0.03739612;0.9908334;0.09972299;6;0;2;575;981;-3858;4;0.2922437;-0.7587311;0.5637119;0.1454294;0;2;-4;-3045;2672;-990;16;0.04709141;-0.9603903;-0.2506925;-0.1121884;4;4;3;-1897;712;3594;2;0.1842105;-0.6218836;-0.6873742;-0.3268698;-5;7;-1;2513;2652;305;8;0.1135734;-0.983715;0.132964;0.04155125;3;2;-4;1024;986;3782;0.9657478;1.887646;2.069335;0.965452;1.860684;1.524454;0.9651698;1.834965;1.045605;0.9589567;1.76082;0.3155863;0.6952356;1.711661;-0.005010426;0.3615554;1.81693;0.1280879;0.06477551;0.944844;0.0295115;0;0;0;1.213762;1.668208;-0.005013183;1.508106;1.720847;0.1280833;1.899791;0.8811638;0.3922592;1.970616;-0.05648994;0.5087824;0.6539332;1.885671;2.11516;0.612651;0.9942846;3.274723;0.4943482;0.8012795;4.601779;0.6539332;1.885671;2.11516;0.612651;0.9942846;3.274723;0.4943482;0.8012795;4.601779
1097001.5049;NotLabelled;NONE;16384;0.7335361;-0.6537396;0.05124654;-0.1786704;0;0;-3;-1741;3743;376;65536;0.6562276;-0.6454294;-0.2465374;-0.3033241;2;6;3;482;4025;65;8192;0.5789474;-0.6538849;-0.4722992;-0.1191136;-23;-29;0;2638;2749;-819;32768;0.6537396;-0.742465;-0.1301939;-0.06648199;-3;-2;-5;-607;2791;4447;256;-0.04847645;-0.04570637;-0.9965314;0.04986149;-8;-5;-3;157;-414;3933;128;0.08310249;-0.03739612;0.9908334;0.09972299;5;0;2;445;709;-3820;4;0.2922437;-0.7597581;0.5623268;0.1454294;0;3;-3;-3079;2578;-1092;16;0.04847645;-0.9603214;-0.2506925;-0.1121884;3;-3;3;-1909;674;3398;2;0.1842105;-0.6204986;-0.6886248;-0.3268698;-3;0;0;2551;2596;377;8;0.1135734;-0.983715;0.132964;0.04155125;2;3;-3;1130;918;3704;0.9672067;1.891762;2.071213;0.9668958;1.863428;1.526402;0.9666003;1.836503;1.047619;0.9598694;1.76024;0.3178236;0.6958784;1.710835;-0.002513483;0.3625341;1.817367;0.1304217;0.0676953;0.9445385;0.03259463;0;0;0;1.214289;1.666023;-0.002614975;1.508829;1.718281;0.1301987;1.907981;0.8790985;0.3846104;1.985002;-0.05747128;0.505828;0.6553934;1.889902;2.117052;0.6173962;1.001132;3.278732;0.4970219;0.8036388;4.604942;0.6553934;1.889902;2.117052;0.6173962;1.001132;3.278732;0.4970219;0.8036388;4.604942
1097022.4797;NotLabelled;NONE;16384;0.7335361;-0.6537396;0.05124654;-0.1786704;0;-1;-4;-1279;3841;458;65536;0.6555857;-0.6454294;-0.2465374;-0.3047091;3;11;1;296;4073;-83;8192;0.5761772;-0.6573085;-0.4722992;-0.1135734;8;4;9;3134;3049;-1551;32768;0.6523545;-0.7421743;-0.1357341;-0.07202215;11;47;6;-319;4177;1021;256;-0.04847645;-0.04709141;-0.9963966;0.05124654;-8;-4;-2;493;-570;3953;128;0.08171745;-0.03739612;0.991087;0.09833795;1;-3;2;211;549;-3970;4;0.2922437;-0.7597581;0.5623268;0.1454294;-2;3;-1;-3127;2486;-1168;16;0.04847645;-0.9603214;-0.2506925;-0.1121884;2;-3;4;-2039;644;3316;2;0.1855956;-0.6204986;-0.6882528;-0.3268698;1;-3;0;2579;2786;297;8;0.1149584;-0.9833063;0.134349;0.04293629;1;-8;0;1090;1106;3792;0.9709829;1.89013;2.076419;0.9706719;1.861796;1.531608;0.9703764;1.834871;1.052825;0.9637809;1.758695;0.3230193;0.6998471;1.709368;0.002623364;0.3664915;1.815932;0.1355043;0.06850269;0.9443507;0.03611221;0;0;0;1.218251;1.664481;0.00262028;1.512772;1.71668;0.1354996;1.915219;0.8789201;0.3894082;1.995797;-0.05727959;0.5111696;0.6591696;1.888271;2.122258;0.6193379;0.9992113;3.283656;0.4959424;0.7981453;4.60905;0.6591696;1.888271;2.122258;0.6193379;0.9992113;3.283656;0.4959424;0.7981453;4.60905
1097043.4903;NotLabelled;NONE;16384;0.7335361;-0.6537396;0.05124654;-0.1786704;-1;0;-4;-1281;3853;594;65536;0.6557803;-0.6440443;-0.2479224;-0.3060942;0;12;1;408;4033;11;8192;0.5734072;-0.6587325;-0.4736842;-0.1135734;15;15;10;2832;3493;-551;32768;0.6537396;-0.7394748;-0.1398892;-0.07894737;13;51;8;167;4349;441;256;-0.04847645;-0.04709141;-0.9963244;0.05263158;-6;0;0;507;-706;4047;128;0.08171745;-0.03601108;0.9911383;0.09833795;0;-1;0;-11;591;-4174;4;0.2922437;-0.7600219;0.5623268;0.1440443;-3;-4;0;-3051;2546;-972;16;0.04986149;-0.9604481;-0.2493075;-0.1135734;-1;-10;1;-1997;786;3284;2;0.1855956;-0.6204986;-0.6882528;-0.3268698;1;-5;0;2641;2766;211;8;0.1149584;-0.9831756;0.1357341;0.04155125;0;-5;2;1024;936;3784;0.9733015;1.894012;2.075805;0.9729735;1.864121;1.531078;0.9726629;1.835829;1.052373;0.965677;1.75754;0.3227949;0.7015311;1.707968;0.002611876;0.3684909;1.815794;0.1352655;0.07049659;0.9442137;0.03589008;0;0;0;1.219816;1.661721;0.002608478;1.514507;1.713536;0.1352598;1.921557;0.8805426;0.3973817;2.001127;-0.05547202;0.5212122;0.6614897;1.892283;2.121659;0.6219856;1.003224;3.283069;0.4989637;0.8021578;4.608499;0.6614897;1.892283;2.121659;0.6219856;1.003224;3.283069;0.4989637;0.8021578;4.608499
1097064.5774;NotLabelled;NONE;16384;0.7330993;-0.6537396;0.05263158;-0.1800554;-1;0;-6;-1075;3987;318;65536;0.6546062;-0.6440443;-0.2493075;-0.3074792;0;16;2;178;4141;81;8192;0.5706371;-0.6576527;-0.4778393;-0.1163435;15;31;7;2422;3871;353;32768;0.6551247;-0.7366742;-0.1440443;-0.08587258;11;52;9;-77;4217;43;256;-0.04986149;-0.04709141;-0.9961058;0.05540166;0;3;7;351;-566;4121;128;0.08310249;-0.03601108;0.9910231;0.09833795;-3;-1;-5;291;747;-3994;4;0.2936288;-0.7594879;0.5623268;0.1440443;-3;-10;1;-3117;2448;-880;16;0.04986149;-0.9608067;-0.2479224;-0.1135734;-2;-15;-1;-1989;660;3344;2;0.1869806;-0.6218836;-0.6866259;-0.3268698;1;-6;1;2777;2620;153;8;0.1135734;-0.9831444;0.1371191;0.04155125;0;-3;1;1126;898;3720;0.9728965;1.896835;2.0778;0.972567;1.866808;1.53308;0.9722553;1.838393;1.054383;0.9650867;1.758084;0.3250253;0.7008627;1.70759;0.005050883;0.3678426;1.815736;0.1374942;0.06979813;0.9441807;0.03804995;0;0;0;1.219154;1.661417;0.005037844;1.513873;1.71364;0.1374669;1.920373;0.8822293;0.4054018;1.995597;-0.05479264;0.5242321;0.6610847;1.895119;2.123655;0.6189129;1.008113;3.286539;0.4931008;0.802937;4.611078;0.6610847;1.895119;2.123655;0.6189129;1.008113;3.286539;0.4931008;0.802937;4.611078
1097085.4832;NotLabelled;NONE;16384;0.7330993;-0.6537396;0.05263158;-0.1800554;0;1;-4;-1023;4019;240;65536;0.6534241;-0.6440443;-0.2506925;-0.3088643;-2;9;6;48;4141;27;8192;0.5692521;-0.6560844;-0.4806094;-0.1204986;12;37;3;1620;3861;875;32768;0.6565097;-0.7339453;-0.1481994;-0.09141274;5;38;9;-169;4151;-445;256;-0.05124654;-0.04570637;-0.9961001;0.05540166;1;3;4;211;-380;4095;128;0.08310249;-0.03601108;0.9910231;0.09833795;-4;0;-4;511;921;-3986;4;0.2936288;-0.7581961;0.5637119;0.1454294;-2;-12;2;-3213;2386;-812;16;0.04986149;-0.9611629;-0.2465374;-0.1135734;-2;-16;-3;-1991;568;3430;2;0.1869806;-0.6232687;-0.6853689;-0.3268698;2;-10;1;2747;2590;69;8;0.1135734;-0.9829502;0.1385041;0.04155125;-1;-10;2;1164;872;3714;0.9778667;1.901147;2.073126;0.9775376;1.87116;1.528404;0.9772263;1.842782;1.049705;0.969746;1.758345;0.320817;0.7053919;1.705923;0.001259938;0.3723867;1.814669;0.1332486;0.07029596;0.9442058;0.03648838;0;0;0;1.223704;1.65998;0.001259834;1.518463;1.713082;0.1332502;1.925793;0.8829994;0.4040269;1.997081;-0.05499864;0.5174548;0.6660548;1.899426;2.118981;0.6246297;1.009799;3.279889;0.5024949;0.8049984;4.604829;0.6660548;1.899426;2.118981;0.6246297;1.009799;3.279889;0.5024949;0.8049984;4.604829
1097106.4886;NotLabelled;NONE;16384;0.73443;-0.6523545;0.05124654;-0.1800554;-1;3;-1;-1495;3761;304;65536;0.6528103;-0.6426592;-0.2506925;-0.3130194;0;14;6;418;3969;177;8192;0.5692521;-0.6535298;-0.4833795;-0.1232687;5;18;1;1396;3677;1353;32768;0.6578947;-0.7316075;-0.1509695;-0.09556787;0;29;8;-161;4123;183;256;-0.05124654;-0.04570637;-0.9961001;0.05540166;1;2;1;263;-298;3805;128;0.08310249;-0.03601108;0.9908847;0.09972299;-4;-4;-2;547;1007;-3852;4;0.2936288;-0.7571644;0.5650969;0.1454294;-3;-13;3;-3213;2470;-664;16;0.04847645;-0.9621025;-0.2437673;-0.1121884;-2;-20;-4;-1805;484;3552;2;0.1869806;-0.6246537;-0.6841068;-0.3268698;3;-12;0;2797;2532;-63;8;0.1135734;-0.9827541;0.1398892;0.04155125;-3;-13;2;1152;780;3690;0.9782283;1.902892;2.071771;0.9778993;1.872905;1.527048;0.9775879;1.844527;1.048349;0.9703532;1.760099;0.3194584;0.706153;1.706918;-0.000100553;0.3728316;1.814684;0.131893;0.07078035;0.9442272;0.03494333;0;0;0;1.224597;1.66249;-0.0001035035;1.5192;1.716449;0.1318885;1.923386;0.8853416;0.4042268;1.992695;-0.05342722;0.5123802;0.6664165;1.901171;2.117625;0.6292238;1.009785;3.277326;0.5102522;0.8053606;4.602612;0.6664165;1.901171;2.117625;0.6292238;1.009785;3.277326;0.5102522;0.8053606;4.602612
1097126.4804;NotLabelled;NONE;16384;0.734089;-0.6523545;0.05124654;-0.1814404;-2;3;-4;-1557;3777;186;65536;0.6523046;-0.6412742;-0.2520775;-0.3157895;0;19;4;434;4069;179;8192;0.5706371;-0.6510285;-0.4847645;-0.1246537;-1;-2;0;1882;3573;1007;32768;0.6578947;-0.7303819;-0.1523546;-0.1024931;-8;2;9;-365;4119;615;256;-0.05124654;-0.04432133;-0.9962387;0.05401662;0;1;-1;289;-274;3871;128;0.08310249;-0.03601108;0.9908847;0.09972299;-3;-6;0;437;1013;-4012;4;0.2936288;-0.7561287;0.566482;0.1454294;-4;-12;1;-3293;2506;-702;16;0.04847645;-0.9633061;-0.2396122;-0.1108033;-1;-22;-5;-1763;420;3712;2;0.1869806;-0.6260388;-0.6828396;-0.3268698;6;-14;0;2993;2606;-135;8;0.1121884;-0.9825149;0.1426593;0.04155125;-3;-16;0;1266;906;3762;0.9810255;1.90003;2.076473;0.9807131;1.871555;1.53167;0.9804162;1.844506;1.052894;0.9733328;1.760078;0.3240013;0.709199;1.706898;0.004387468;0.37585;1.814663;0.1363121;0.07565104;0.9437383;0.03782793;0;0;0;1.227643;1.66247;0.004492313;1.522218;1.716428;0.1365453;1.926278;0.8856329;0.4100241;1.99353;-0.05381715;0.5134607;0.6692123;1.898182;2.122313;0.6301595;1.007093;3.282181;0.5130506;0.807886;4.608427;0.6692123;1.898182;2.122313;0.6301595;1.007093;3.282181;0.5130506;0.807886;4.608427
1097146.4925;NotLabelled;NONE;16384;0.7337453;-0.6523545;0.05124654;-0.1828255;-3;0;-6;-1401;3735;90;65536;0.652456;-0.6398892;-0.2534626;-0.3171745;1;19;4;266;4087;113;8192;0.5720221;-0.6498119;-0.4847645;-0.1246537;-7;0;-2;1904;3705;875;32768;0.6565097;-0.7317189;-0.1509695;-0.1038781;-4;-3;10;35;4385;-199;256;-0.05124654;-0.04432133;-0.9962387;0.05401662;0;0;-2;343;-470;3903;128;0.08310249;-0.03462604;0.9907937;0.101108;-3;-8;2;307;801;-4058;4;0.2950138;-0.7524562;0.5706371;0.1454294;-4;-12;-2;-3183;2600;-782;16;0.04847645;-0.9646673;-0.234072;-0.1108033;0;-17;-1;-1693;624;3730;2;0.1855956;-0.6288089;-0.6806687;-0.3268698;7;-9;1;3027;2780;75;8;0.1108033;-0.9819095;0.1481994;0.0401662;-1;-13;4;1170;886;3866;0.9838393;1.89792;2.080726;0.9835267;1.869446;1.535923;0.98323;1.842396;1.057147;0.9763932;1.760087;0.3280096;0.7124106;1.707152;0.008229896;0.3787764;1.813659;0.1404554;0.07693455;0.9435552;0.03975897;0;0;0;1.230969;1.66408;0.008226991;1.525397;1.718421;0.1404501;1.930737;0.8862289;0.4077164;1.99011;-0.05394351;0.5093945;0.672026;1.896073;2.126566;0.6312582;1.005284;3.286607;0.5168027;0.8080691;4.613381;0.672026;1.896073;2.126566;0.6312582;1.005284;3.286607;0.5168027;0.8080691;4.613381
1097166.4909;NotLabelled;NONE;16384;0.7336473;-0.6523545;0.05263158;-0.1828255;-2;1;-4;-1299;3931;282;65536;0.6519207;-0.6385041;-0.2548476;-0.3199446;2;21;5;194;4115;-9;8192;0.5720221;-0.6498119;-0.4847645;-0.1246537;-4;-9;-1;1932;3445;241;32768;0.6565097;-0.7318054;-0.1495845;-0.1052632;-9;-1;9;-581;3959;677;256;-0.04986149;-0.04432133;-0.996309;0.05401662;0;0;-3;445;-570;3965;128;0.08171745;-0.033241;0.9909563;0.101108;-2;-5;2;177;695;-4032;4;0.2950138;-0.7514039;0.5720221;0.1454294;-5;-9;-1;-3017;2504;-720;16;0.04847645;-0.9654932;-0.2313019;-0.1094183;0;-15;0;-1663;552;3638;2;0.1842105;-0.6301939;-0.6790956;-0.3282548;8;-10;2;3121;2644;39;8;0.1108033;-0.9816995;0.1495845;0.0401662;0;-4;5;1204;746;3788;0.9845256;1.895008;2.080845;0.9842281;1.867907;1.535971;0.9839445;1.842065;1.057129;0.9772404;1.759755;0.3279907;0.7133161;1.70682;0.00816299;0.3796577;1.813327;0.1403276;0.07621641;0.9435205;0.04189691;0;0;0;1.231874;1.663749;0.008254439;1.526279;1.71809;0.1405309;1.932782;0.8861556;0.406832;1.988169;-0.05389023;0.5118726;0.6727111;1.893045;2.126672;0.6240736;1.000594;3.285129;0.5082541;0.8048544;4.612004;0.6727111;1.893045;2.126672;0.6240736;1.000594;3.285129;0.5082541;0.8048544;4.612004
1097186.7342;NotLabelled;NONE;16384;0.7333007;-0.6523545;0.05263158;-0.1842105;-3;0;-2;-1233;3911;594;65536;0.6508207;-0.6371191;-0.2576177;-0.3227147;1;32;6;270;4077;41;8192;0.5720221;-0.6511066;-0.4833795;-0.1232687;-1;-6;-2;2050;3649;651;32768;0.6551247;-0.7331267;-0.1481994;-0.1066482;-7;-4;8;-149;4037;393;256;-0.04986149;-0.04432133;-0.996309;0.05401662;3;1;0;303;-502;4085;128;0.08171745;-0.03047091;0.9909031;0.1024931;-3;-11;0;167;903;-4086;4;0.2950138;-0.7503475;0.5734072;0.1454294;-6;-6;0;-3099;2420;-608;16;0.04847645;-0.9661526;-0.2285319;-0.1094183;-1;-9;1;-1715;588;3568;2;0.1842105;-0.6315789;-0.6778077;-0.3282548;7;-9;2;3205;2700;-101;8;0.1094183;-0.9816985;0.1509695;0.03878116;0;-2;6;1248;868;3876;0.9874399;1.894109;2.085301;0.9871405;1.866832;1.540437;0.9868553;1.840836;1.061602;0.9800123;1.758611;0.3324556;0.7160245;1.705754;0.01266745;0.3824057;1.812298;0.1449023;0.07737911;0.9433308;0.04399356;0;0;0;1.234576;1.662601;0.01266432;1.529012;1.716881;0.1448963;1.934863;0.8842788;0.4100998;1.986279;-0.05599499;0.5151207;0.6756256;1.892161;2.13113;0.6223482;1.000028;3.289629;0.5061486;0.8058696;4.616704;0.6756256;1.892161;2.13113;0.6223482;1.000028;3.289629;0.5061486;0.8058696;4.616704
1097208.4823;NotLabelled;NONE;16384;0.7343751;-0.6509695;0.04986149;-0.1855956;-3;15;-3;-1087;3879;454;65536;0.6471258;-0.634349;-0.2631579;-0.3310249;-3;36;7;300;4043;25;8192;0.5720221;-0.6511066;-0.4833795;-0.1232687;-3;0;-5;2096;3607;633;32768;0.6551247;-0.7336813;-0.1454294;-0.1066482;-8;-7;5;1;4305;-341;256;-0.04986149;-0.04432133;-0.996309;0.05401662;3;1;0;373;-438;4073;128;0.08171745;-0.02908587;0.9909447;0.1024931;-3;-6;-1;31;899;-4170;4;0.2963989;-0.7498015;0.5734072;0.1454294;-7;-5;0;-3167;2410;-544;16;0.04847645;-0.9659947;-0.2285319;-0.1108033;-2;-3;1;-1711;482;3594;2;0.1828255;-0.632964;-0.6768901;-0.3282548;7;-6;2;3247;2792;-125;8;0.1094183;-0.9816985;0.1509695;0.03878116;0;-5;5;1204;944;3866;0.9885498;1.891442;2.084164;0.9882642;1.865407;1.539239;0.9879907;1.840501;1.060346;0.9812685;1.758276;0.331199;0.7173337;1.70542;0.01136699;0.383693;1.811964;0.1435467;0.07706229;0.9433235;0.04470048;0;0;0;1.235885;1.662267;0.0114499;1.530299;1.716547;0.1437306;1.936058;0.8847591;0.41162;1.983481;-0.05534697;0.5199684;0.6767345;1.889389;2.129981;0.6216292;0.9975797;3.288643;0.5046575;0.8041512;4.615756;0.6767345;1.889389;2.129981;0.6216292;0.9975797;3.288643;0.5046575;0.8041512;4.615756
1097228.5213;NotLabelled;NONE;16384;0.7353423;-0.6495845;0.04847645;-0.1869806;-4;13;-4;-1479;3805;348;65536;0.6452079;-0.632964;-0.265928;-0.33518;-5;34;6;482;4065;111;8192;0.5747922;-0.6504536;-0.4806094;-0.1246537;-4;-7;-6;1966;3645;199;32768;0.6537396;-0.7349861;-0.1440443;-0.1080332;-3;-6;4;-11;4157;433;256;-0.04986149;-0.04432133;-0.9963831;0.05263158;2;3;2;475;-468;4135;128;0.08171745;-0.02908587;0.9909447;0.1024931;-3;-1;-1;25;919;-4210;4;0.2963989;-0.7490079;0.5747922;0.1440443;-6;-4;0;-3095;2452;-624;16;0.04847645;-0.9663213;-0.2271468;-0.1108033;-3;-4;2;-1729;668;3638;2;0.1828255;-0.632964;-0.6768901;-0.3282548;5;-2;2;3201;2908;-85;8;0.1094183;-0.9815382;0.1523546;0.03739612;0;0;5;1052;1072;3898;0.9901083;1.891375;2.090895;0.9898211;1.865205;1.545977;0.9895466;1.840181;1.067091;0.9827042;1.757956;0.337944;0.7187167;1.705099;0.01815571;0.3850977;1.811643;0.1503903;0.08048338;0.9429972;0.04554401;0;0;0;1.237268;1.661946;0.01815286;1.531704;1.716226;0.1503853;1.937539;0.8838313;0.416262;1.981449;-0.05640364;0.5249738;0.6782929;1.889334;2.136713;0.6205858;0.9949567;3.293267;0.5002105;0.8006961;4.619955;0.6782929;1.889334;2.136713;0.6205858;0.9949567;3.293267;0.5002105;0.8006961;4.619955
1097249.7064;NotLabelled;NONE;16384;0.7349887;-0.6495845;0.04847645;-0.1883656;-4;5;-3;-1303;3833;264;65536;0.6438195;-0.6315789;-0.267313;-0.3393352;-5;32;7;192;4147;101;8192;0.5761772;-0.6502501;-0.4792244;-0.1246537;-5;-5;-7;2022;3531;265;32768;0.6537396;-0.7354584;-0.1426593;-0.1066482;0;-7;2;-289;4087;539;256;-0.04986149;-0.04293629;-0.9964438;0.05263158;1;3;3;303;-466;4041;128;0.08171745;-0.02770083;0.9908402;0.1038781;-2;0;-2;35;827;-4164;4;0.2977839;-0.7473927;0.5761772;0.1440443;-3;-1;0;-3005;2592;-540;16;0.04709141;-0.9667143;-0.2257618;-0.1108033;-3;-5;1;-1731;678;3526;2;0.1814404;-0.634349;-0.6759656;-0.3282548;4;-1;1;3147;2864;-133;8;0.1094183;-0.9817522;0.1509695;0.03739612;0;4;5;1098;976;3846;0.9913928;1.888217;2.095155;0.9911057;1.862046;1.550236;0.990831;1.837022;1.071349;0.9841448;1.756816;0.3419766;0.7202234;1.704883;0.0219823;0.3865894;1.811109;0.1544343;0.08221145;0.9428303;0.04592465;0;0;0;1.238769;1.661655;0.02197951;1.533182;1.715526;0.1544295;1.936239;0.8797421;0.4138241;1.976169;-0.06028175;0.5258448;0.6795775;1.886175;2.140972;0.6173097;0.9942265;3.299165;0.4965048;0.8003371;4.625867;0.6795775;1.886175;2.140972;0.6173097;0.9942265;3.299165;0.4965048;0.8003371;4.625867
1097270.491;NotLabelled;NONE;16384;0.7347224;-0.6495845;0.04709141;-0.1897507;-4;14;-2;-1107;3947;286;65536;0.641814;-0.6301939;-0.2700831;-0.3434903;-4;30;8;410;4053;133;8192;0.5761772;-0.6512686;-0.4778393;-0.1246537;-4;-3;-10;1784;3719;311;32768;0.6537396;-0.7357257;-0.1412742;-0.1066482;1;0;0;-155;4123;429;256;-0.05124654;-0.04293629;-0.9963735;0.05263158;0;6;4;305;-492;4143;128;0.08171745;-0.02908587;0.9908005;0.1038781;-2;2;-3;213;873;-4208;4;0.2977839;-0.7473927;0.5761772;0.1440443;-3;0;0;-3139;2528;-656;16;0.04709141;-0.9667143;-0.2257618;-0.1108033;-2;-3;1;-1823;622;3592;2;0.1814404;-0.634349;-0.6752912;-0.3296399;2;1;0;3253;2856;-121;8;0.1094183;-0.981804;0.1509695;0.03601108;0;-2;4;1142;914;3924;0.9961865;1.88623;2.096718;0.9959143;1.861438;1.551735;0.9956531;1.837626;1.072787;0.9891979;1.757516;0.3434017;0.7254248;1.704904;0.02339591;0.391497;1.810188;0.1558603;0.08549032;0.9424592;0.04752403;0;0;0;1.244088;1.66311;0.02339301;1.538349;1.717773;0.1558552;1.940894;0.8808082;0.4122173;1.980981;-0.05914271;0.5247926;0.6843699;1.884073;2.142522;0.6174662;0.9899119;3.298748;0.4953466;0.7999891;4.625904;0.6843699;1.884073;2.142522;0.6174662;0.9899119;3.298748;0.4953466;0.7999891;4.625904
1097291.4843;NotLabelled;NONE;16384;0.7353123;-0.6481994;0.04570637;-0.1925208;-4;20;-4;-1439;3897;544;65536;0.6397603;-0.6288089;-0.2728532;-0.3476454;-4;36;5;444;4135;-19;8192;0.5775623;-0.6507897;-0.4764543;-0.1260388;0;-6;-13;1722;3695;203;32768;0.6537396;-0.7352563;-0.1426593;-0.1080332;3;4;-2;-221;4121;481;256;-0.05263158;-0.0401662;-0.9964168;0.05263158;2;9;7;283;-476;4085;128;0.08310249;-0.03047091;0.9906437;0.1038781;-2;6;-4;115;843;-4174;4;0.299169;-0.7468393;0.5761772;0.1440443;-2;3;0;-3213;2530;-624;16;0.04709141;-0.9665546;-0.2257618;-0.1121884;-2;-1;1;-1819;562;3652;2;0.1800554;-0.634349;-0.6756619;-0.3296399;0;4;0;3369;2862;-221;8;0.1094183;-0.9818538;0.1509695;0.03462604;1;5;3;1100;904;3944;0.9984257;1.886061;2.095221;0.9981553;1.861404;1.550231;0.9978954;1.83771;1.071278;0.9914585;1.757518;0.3419015;0.7276964;1.704831;0.02189931;0.3937514;1.810078;0.1543493;0.08738236;0.942282;0.04759344;0;0;0;1.246365;1.663116;0.02190545;1.540617;1.717838;0.154364;1.942762;0.8801467;0.408977;1.9814;-0.05985498;0.5216308;0.686609;1.883892;2.141024;0.6228951;0.9897318;3.29743;0.5044371;0.799809;4.624917;0.686609;1.883892;2.141024;0.6228951;0.9897318;3.29743;0.5044371;0.799809;4.624917
